ExperimentName,Subject,Session,Trial,Correct,Procedure[Trial],TextDisplay1.OnsetTime,TextDisplay1.RT,TextDisplay1.RTTime,WaitATwoSec.OnsetTime,WaitATwoSec.RT,WaitATwoSec.RTTime,WaitBThreeSec.OnsetTime,WaitBThreeSec.RT,WaitBThreeSec.RTTime,WaitCFourSec.OnsetTime,WaitCFourSec.RT,WaitCFourSec.RTTime,WaitDFiveSec.OnsetTime,WaitDFiveSec.RT,WaitDFiveSec.RTTime,WaitESixSec.OnsetTime,WaitESixSec.RT,WaitESixSec.RTTime,WaitFSevenSec.OnsetTime,WaitFSevenSec.RT,WaitFSevenSec.RTTime,WaitGEightSec.OnsetTime,WaitGEightSec.RT,WaitGEightSec.RTTime,WaitHNineSec.OnsetTime,WaitHNineSec.RT,WaitHNineSec.RTTime,WaitITenSec.OnsetTime,WaitITenSec.RT,WaitITenSec.RTTimePVT2011,104,1,,,,,,,,,,,,,,,,,,,,,,,,,,,,,,,,,PVT2011,104,1,1,{SPACE},CFourSec,21415,431,21846,,,,,,,18400,0,0,,,,,,,,,,,,,,,,,,PVT2011,104,1,2,{SPACE},FSevenSec,28880,283,29163,,,,,,,,,,,,,,,,22866,0,0,,,,,,,,,PVT2011,104,1,3,{SPACE},FSevenSec,36195,426,36621,,,,,,,,,,,,,,,,30181,0,0,,,,,,,,,PVT2011,104,1,4,{SPACE},ESixSec,42645,333,42978,,,,,,,,,,,,,37629,0,0,,,,,,,,,,,,PVT2011,104,1,5,{SPACE},ITenSec,53008,450,53458,,,,,,,,,,,,,,,,,,,,,,,,,43994,0,0PVT2011,104,1,6,{SPACE},CFourSec,57490,393,57883,,,,,,,54475,0,0,,,,,,,,,,,,,,,,,,PVT2011,104,1,7,{SPACE},ATwoSec,59906,356,60262,58891,0,0,,,,,,,,,,,,,,,,,,,,,,,,PVT2011,104,1,8,{SPACE},BThreeSec,63288,398,63686,,,,61273,0,0,,,,,,,,,,,,,,,,,,,,,PVT2011,104,1,9,{SPACE},GEightSec,71703,241,71944,,,,,,,,,,,,,,,,,,,64689,0,0,,,,,,PVT2011,104,1,10,{SPACE},DFiveSec,76968,218,77186,,,,,,,,,,72954,0,0,,,,,,,,,,,,,,,PVT2011,104,1,11,{SPACE},ITenSec,87216,354,87570,,,,,,,,,,,,,,,,,,,,,,,,,78203,0,0PVT2011,104,1,12,{SPACE},HNineSec,96597,404,97001,,,,,,,,,,,,,,,,,,,,,,88583,0,0,,,PVT2011,104,1,13,{SPACE},BThreeSec,100029,317,100346,,,,98014,0,0,,,,,,,,,,,,,,,,,,,,,PVT2011,104,1,14,{SPACE},ESixSec,106378,273,106651,,,,,,,,,,,,,101363,0,0,,,,,,,,,,,,PVT2011,104,1,15,{SPACE},ATwoSec,108677,802,109479,107662,0,0,,,,,,,,,,,,,,,,,,,,,,,,PVT2011,104,1,16,{SPACE},DFiveSec,114509,314,114823,,,,,,,,,,110495,0,0,,,,,,,,,,,,,,,PVT2011,104,1,17,{SPACE},HNineSec,123840,283,124123,,,,,,,,,,,,,,,,,,,,,,115827,0,0,,,PVT2011,104,1,18,{SPACE},GEightSec,132155,401,132556,,,,,,,,,,,,,,,,,,,125141,0,0,,,,,,PVT2011,104,1,19,{SPACE},CFourSec,136587,314,136901,,,,,,,133572,0,0,,,,,,,,,,,,,,,,,,PVT2011,104,1,20,{SPACE},ESixSec,142919,281,143200,,,,,,,,,,,,,137904,0,0,,,,,,,,,,,,PVT2011,104,1,21,{SPACE},FSevenSec,150217,457,150674,,,,,,,,,,,,,,,,144203,0,0,,,,,,,,,PVT2011,104,1,22,{SPACE},BThreeSec,153699,474,154173,,,,151684,0,0,,,,,,,,,,,,,,,,,,,,,PVT2011,104,1,23,{SPACE},ATwoSec,156199,499,156698,155183,0,0,,,,,,,,,,,,,,,,,,,,,,,,PVT2011,104,1,24,{SPACE},GEightSec,164730,281,165011,,,,,,,,,,,,,,,,,,,157716,0,0,,,,,,PVT2011,104,1,25,{SPACE},DFiveSec,170028,296,170324,,,,,,,,,,166015,0,0,,,,,,,,,,,,,,,PVT2011,104,1,26,{SPACE},ITenSec,180343,428,180771,,,,,,,,,,,,,,,,,,,,,,,,,171329,0,0PVT2011,104,1,27,{SPACE},ATwoSec,182792,395,183187,181777,0,0,,,,,,,,,,,,,,,,,,,,,,,,PVT2011,104,1,28,{SPACE},ITenSec,193206,388,193594,,,,,,,,,,,,,,,,,,,,,,,,,184193,0,0PVT2011,104,1,29,{SPACE},GEightSec,201621,374,201995,,,,,,,,,,,,,,,,,,,194607,0,0,,,,,,PVT2011,104,1,30,{SPACE},FSevenSec,209019,449,209468,,,,,,,,,,,,,,,,203005,0,0,,,,,,,,,PVT2011,104,1,31,{SPACE},HNineSec,218500,349,218849,,,,,,,,,,,,,,,,,,,,,,210486,0,0,,,PVT2011,104,1,32,{SPACE},ESixSec,224881,276,225157,,,,,,,,,,,,,219867,0,0,,,,,,,,,,,,PVT2011,104,1,33,{SPACE},HNineSec,234179,284,234463,,,,,,,,,,,,,,,,,,,,,,226166,0,0,,,PVT2011,104,1,34,{SPACE},DFiveSec,239495,482,239977,,,,,,,,,,235480,0,0,,,,,,,,,,,,,,,PVT2011,104,1,35,{SPACE},BThreeSec,243010,438,243448,,,,240995,0,0,,,,,,,,,,,,,,,,,,,,,PVT2011,104,1,36,{SPACE},CFourSec,247476,528,248004,,,,,,,244461,0,0,,,,,,,,,,,,,,,,,,PVT2011,104,1,37,{SPACE},GEightSec,256024,359,256383,,,,,,,,,,,,,,,,,,,249010,0,0,,,,,,PVT2011,104,1,38,{SPACE},ITenSec,266405,363,266768,,,,,,,,,,,,,,,,,,,,,,,,,257391,0,0PVT2011,104,1,39,{SPACE},CFourSec,270787,591,271378,,,,,,,267772,0,0,,,,,,,,,,,,,,,,,,PVT2011,104,1,40,{SPACE},ATwoSec,273403,407,273810,272388,0,0,,,,,,,,,,,,,,,,,,,,,,,,PVT2011,104,1,41,{SPACE},DFiveSec,278835,306,279141,,,,,,,,,,274820,0,0,,,,,,,,,,,,,,,PVT2011,104,1,42,{SPACE},ITenSec,289166,422,289588,,,,,,,,,,,,,,,,,,,,,,,,,280152,0,0PVT2011,104,1,43,{SPACE},GEightSec,297613,351,297964,,,,,,,,,,,,,,,,,,,290600,0,0,,,,,,PVT2011,104,1,44,{SPACE},BThreeSec,300996,431,301427,,,,298981,0,0,,,,,,,,,,,,,,,,,,,,,PVT2011,104,1,45,{SPACE},HNineSec,310444,387,310831,,,,,,,,,,,,,,,,,,,,,,302430,0,0,,,PVT2011,104,1,46,{SPACE},ATwoSec,312860,523,313383,311844,0,0,,,,,,,,,,,,,,,,,,,,,,,,PVT2011,104,1,47,{SPACE},HNineSec,322407,711,323118,,,,,,,,,,,,,,,,,,,,,,314394,0,0,,,PVT2011,104,1,48,{SPACE},ESixSec,329139,448,329587,,,,,,,,,,,,,324125,0,0,,,,,,,,,,,,PVT2011,104,1,49,{SPACE},FSevenSec,336604,366,336970,,,,,,,,,,,,,,,,330590,0,0,,,,,,,,,PVT2011,104,1,50,{SPACE},FSevenSec,344003,344,344347,,,,,,,,,,,,,,,,337988,0,0,,,,,,,,,PVT2011,104,1,51,{SPACE},DFiveSec,349367,257,349624,,,,,,,,,,345353,0,0,,,,,,,,,,,,,,,PVT2011,104,1,52,{SPACE},BThreeSec,352650,345,352995,,,,350635,0,0,,,,,,,,,,,,,,,,,,,,,PVT2011,104,1,53,{SPACE},CFourSec,357015,277,357292,,,,,,,354001,0,0,,,,,,,,,,,,,,,,,,PVT2011,104,1,54,{SPACE},ESixSec,363314,348,363662,,,,,,,,,,,,,358300,0,0,,,,,,,,,,,,PVT2011,104,1,55,{SPACE},GEightSec,371678,354,372032,,,,,,,,,,,,,,,,,,,364665,0,0,,,,,,PVT2011,104,1,56,{SPACE},ATwoSec,374061,392,374453,373046,0,0,,,,,,,,,,,,,,,,,,,,,,,,PVT2011,104,1,57,{SPACE},CFourSec,378477,479,378956,,,,,,,375462,0,0,,,,,,,,,,,,,,,,,,PVT2011,104,1,58,{SPACE},FSevenSec,385975,344,386319,,,,,,,,,,,,,,,,379961,0,0,,,,,,,,,PVT2011,104,1,59,{SPACE},ITenSec,396339,351,396690,,,,,,,,,,,,,,,,,,,,,,,,,387326,0,0PVT2011,104,1,60,{SPACE},ESixSec,402721,319,403040,,,,,,,,,,,,,397706,0,0,,,,,,,,,,,,PVT2011,104,1,61,{SPACE},HNineSec,412068,477,412545,,,,,,,,,,,,,,,,,,,,,,404055,0,0,,,PVT2011,104,1,62,{SPACE},BThreeSec,415567,511,416078,,,,413553,0,0,,,,,,,,,,,,,,,,,,,,,PVT2011,104,1,63,{SPACE},BThreeSec,419100,384,419484,,,,417085,0,0,,,,,,,,,,,,,,,,,,,,,PVT2011,104,1,64,{SPACE},ESixSec,425515,317,425832,,,,,,,,,,,,,420501,0,0,,,,,,,,,,,,PVT2011,104,1,65,{SPACE},ITenSec,435862,306,436168,,,,,,,,,,,,,,,,,,,,,,,,,426849,0,0PVT2011,104,1,66,{SPACE},DFiveSec,441194,369,441563,,,,,,,,,,437180,0,0,,,,,,,,,,,,,,,PVT2011,104,1,67,{SPACE},GEightSec,449592,311,449903,,,,,,,,,,,,,,,,,,,442579,0,0,,,,,,PVT2011,104,1,68,{SPACE},HNineSec,458923,261,459184,,,,,,,,,,,,,,,,,,,,,,450910,0,0,,,PVT2011,104,1,69,{SPACE},CFourSec,463206,492,463698,,,,,,,460191,0,0,,,,,,,,,,,,,,,,,,PVT2011,104,1,70,{SPACE},DFiveSec,468721,474,469195,,,,,,,,,,464706,0,0,,,,,,,,,,,,,,,PVT2011,104,1,71,{SPACE},FSevenSec,476219,343,476562,,,,,,,,,,,,,,,,470205,0,0,,,,,,,,,PVT2011,104,1,72,{SPACE},ATwoSec,478585,698,479283,477570,0,0,,,,,,,,,,,,,,,,,,,,,,,,PVT2011,104,1,73,{SPACE},BThreeSec,482301,344,482645,,,,480286,0,0,,,,,,,,,,,,,,,,,,,,,PVT2011,104,1,74,{SPACE},CFourSec,486666,344,487010,,,,,,,483652,0,0,,,,,,,,,,,,,,,,,,PVT2011,104,1,75,{SPACE},BThreeSec,490032,485,490517,,,,488017,0,0,,,,,,,,,,,,,,,,,,,,,PVT2011,104,1,76,{SPACE},CFourSec,494548,340,494888,,,,,,,491533,0,0,,,,,,,,,,,,,,,,,,PVT2011,104,1,77,{SPACE},ESixSec,500913,571,501484,,,,,,,,,,,,,495899,0,0,,,,,,,,,,,,PVT2011,104,1,78,{SPACE},ITenSec,511510,388,511898,,,,,,,,,,,,,,,,,,,,,,,,,502497,0,0PVT2011,104,1,79,{SPACE},ATwoSec,513926,449,514375,512911,0,0,,,,,,,,,,,,,,,,,,,,,,,,PVT2011,104,1,80,{SPACE},HNineSec,523391,495,523886,,,,,,,,,,,,,,,,,,,,,,515378,0,0,,,PVT2011,104,1,81,{SPACE},FSevenSec,530905,423,531328,,,,,,,,,,,,,,,,524892,0,0,,,,,,,,,PVT2011,104,1,82,{SPACE},DFiveSec,536354,1410,537764,,,,,,,,,,532340,0,0,,,,,,,,,,,,,,,PVT2011,104,1,83,{SPACE},ATwoSec,539787,570,540357,538771,0,0,,,,,,,,,,,,,,,,,,,,,,,,PVT2011,104,1,84,{SPACE},ITenSec,550384,260,550644,,,,,,,,,,,,,,,,,,,,,,,,,541371,1858,543229PVT2011,104,1,85,{SPACE},GEightSec,558665,618,559283,,,,,,,,,,,,,,,,,,,551652,0,0,,,,,,PVT2011,104,1,86,{SPACE},GEightSec,567313,2443,569756,,,,,,,,,,,,,,,,,,,560299,0,0,,,,,,PVT2011,104,1,87,{SPACE},ESixSec,575778,908,576686,,,,,,,,,,,,,570763,0,0,,,,,,,,,,,,PVT2011,104,1,88,{SPACE},DFiveSec,581709,353,582062,,,,,,,,,,577695,0,0,,,,,,,,,,,,,,,PVT2011,104,1,89,{SPACE},HNineSec,591090,327,591417,,,,,,,,,,,,,,,,,,,,,,583077,0,0,,,PVT2011,104,1,90,{SPACE},FSevenSec,598439,534,598973,,,,,,,,,,,,,,,,592425,0,0,,,,,,,,,PVT2011,104,1,91,{SPACE},ESixSec,605004,338,605342,,,,,,,,,,,,,599990,3343,603333,,,,,,,,,,,,PVT2011,104,1,92,{SPACE},ITenSec,615368,416,615784,,,,,,,,,,,,,,,,,,,,,,,,,606355,0,0PVT2011,104,1,93,{SPACE},HNineSec,624815,310,625125,,,,,,,,,,,,,,,,,,,,,,616802,0,0,,,PVT2011,104,2,,,,,,,,,,,,,,,,,,,,,,,,,,,,,,,,,PVT2011,104,2,1,{SPACE},ITenSec,29374,298,29672,,,,,,,,,,,,,,,,,,,,,,,,,20360,0,0PVT2011,104,2,2,{SPACE},HNineSec,38705,447,39152,,,,,,,,,,,,,,,,,,,,,,30691,0,0,,,PVT2011,104,2,3,{SPACE},ESixSec,45170,360,45530,,,,,,,,,,,,,40156,0,0,,,,,,,,,,,,PVT2011,104,2,4,{SPACE},BThreeSec,48552,370,48922,,,,46537,0,0,,,,,,,,,,,,,,,,,,,,,PVT2011,104,2,5,{SPACE},GEightSec,56950,741,57691,,,,,,,,,,,,,,,,,,,49936,0,0,,,,,,PVT2011,104,2,6,{SPACE},ATwoSec,59716,556,60272,58701,0,0,,,,,,,,,,,,,,,,,,,,,,,,PVT2011,104,2,7,{SPACE},GEightSec,68664,308,68972,,,,,,,,,,,,,,,,,,,61649,0,0,,,,,,PVT2011,104,2,8,{SPACE},DFiveSec,73996,466,74462,,,,,,,,,,69981,0,0,,,,,,,,,,,,,,,PVT2011,104,2,9,{SPACE},FSevenSec,81494,317,81811,,,,,,,,,,,,,,,,75480,0,0,,,,,,,,,PVT2011,104,2,10,{SPACE},BThreeSec,84843,327,85170,,,,82828,0,0,,,,,,,,,,,,,,,,,,,,,PVT2011,104,2,11,{SPACE},ITenSec,95191,352,95543,,,,,,,,,,,,,,,,,,,,,,,,,86177,0,0PVT2011,104,2,12,{SPACE},HNineSec,104572,366,104938,,,,,,,,,,,,,,,,,,,,,,96558,0,0,,,PVT2011,104,2,13,{SPACE},ESixSec,110970,377,111347,,,,,,,,,,,,,105956,0,0,,,,,,,,,,,,PVT2011,104,2,14,{SPACE},FSevenSec,118368,278,118646,,,,,,,,,,,,,,,,112354,0,0,,,,,,,,,PVT2011,104,2,15,{SPACE},DFiveSec,123667,614,124281,,,,,,,,,,119652,0,0,,,,,,,,,,,,,,,PVT2011,104,2,16,{SPACE},CFourSec,128299,324,128623,,,,,,,125284,0,0,,,,,,,,,,,,,,,,,,PVT2011,104,2,17,{SPACE},ATwoSec,130648,326,130974,129633,0,0,,,,,,,,,,,,,,,,,,,,,,,,PVT2011,104,2,18,{SPACE},CFourSec,134997,340,135337,,,,,,,131983,0,0,,,,,,,,,,,,,,,,,,PVT2011,104,2,19,{SPACE},HNineSec,144362,409,144771,,,,,,,,,,,,,,,,,,,,,,136348,0,0,,,PVT2011,104,2,20,{SPACE},DFiveSec,149794,343,150137,,,,,,,,,,145779,0,0,,,,,,,,,,,,,,,PVT2011,104,2,21,{SPACE},ITenSec,160158,354,160512,,,,,,,,,,,,,,,,,,,,,,,,,151145,0,0PVT2011,104,2,22,{SPACE},ESixSec,166540,415,166955,,,,,,,,,,,,,161525,4029,165554,,,,,,,,,,,,PVT2011,104,2,23,{SPACE},ATwoSec,168972,442,169414,167958,0,0,,,,,,,,,,,,,,,,,,,,,,,,PVT2011,104,2,24,{SPACE},BThreeSec,172438,479,172917,,,,170423,0,0,,,,,,,,,,,,,,,,,,,,,PVT2011,104,2,25,{SPACE},ITenSec,182935,927,183862,,,,,,,,,,,,,,,,,,,,,,,,,173922,0,0PVT2011,104,2,26,{SPACE},CFourSec,187884,326,188210,,,,,,,184870,0,0,,,,,,,,,,,,,,,,,,PVT2011,104,2,27,{SPACE},GEightSec,196232,449,196681,,,,,,,,,,,,,,,,,,,189218,0,0,,,,,,PVT2011,104,2,28,{SPACE},FSevenSec,203714,341,204055,,,,,,,,,,,,,,,,197700,0,0,,,,,,,,,PVT2011,104,2,29,{SPACE},GEightSec,212078,417,212495,,,,,,,,,,,,,,,,,,,205065,0,0,,,,,,PVT2011,104,2,30,{SPACE},CFourSec,216527,317,216844,,,,,,,213512,0,0,,,,,,,,,,,,,,,,,,PVT2011,104,2,31,{SPACE},BThreeSec,219876,336,220212,,,,217861,0,0,,,,,,,,,,,,,,,,,,,,,PVT2011,104,2,32,{SPACE},HNineSec,229241,300,229541,,,,,,,,,,,,,,,,,,,,,,221227,0,0,,,PVT2011,104,2,33,{SPACE},ESixSec,235572,404,235976,,,,,,,,,,,,,230557,0,0,,,,,,,,,,,,PVT2011,104,2,34,{SPACE},ATwoSec,238005,2,238007,236990,0,0,,,,,,,,,,,,,,,,,,,,,,,,PVT2011,104,2,35,{SPACE},FSevenSec,245037,438,245475,,,,,,,,,,,,,,,,239023,0,0,,,,,,,,,PVT2011,104,2,36,{SPACE},DFiveSec,250502,475,250977,,,,,,,,,,246488,0,0,,,,,,,,,,,,,,,PVT2011,104,2,37,{SPACE},ESixSec,257000,376,257376,,,,,,,,,,,,,251986,0,0,,,,,,,,,,,,PVT2011,104,2,38,{SPACE},CFourSec,261399,379,261778,,,,,,,258385,0,0,,,,,,,,,,,,,,,,,,PVT2011,104,2,39,{SPACE},DFiveSec,266798,308,267106,,,,,,,,,,262784,0,0,,,,,,,,,,,,,,,PVT2011,104,2,40,{SPACE},FSevenSec,274129,374,274503,,,,,,,,,,,,,,,,268116,0,0,,,,,,,,,PVT2011,104,2,41,{SPACE},CFourSec,278528,350,278878,,,,,,,275514,0,0,,,,,,,,,,,,,,,,,,PVT2011,104,2,42,{SPACE},GEightSec,286910,398,287308,,,,,,,,,,,,,,,,,,,279896,0,0,,,,,,PVT2011,104,2,43,{SPACE},BThreeSec,290325,457,290782,,,,288311,0,0,,,,,,,,,,,,,,,,,,,,,PVT2011,104,2,44,{SPACE},ITenSec,300806,596,301402,,,,,,,,,,,,,,,,,,,,,,,,,291793,0,0PVT2011,104,2,45,{SPACE},HNineSec,310420,307,310727,,,,,,,,,,,,,,,,,,,,,,302407,0,0,,,PVT2011,104,2,46,{SPACE},DFiveSec,315752,429,316181,,,,,,,,,,311738,0,0,,,,,,,,,,,,,,,PVT2011,104,2,47,{SPACE},GEightSec,324200,382,324582,,,,,,,,,,,,,,,,,,,317187,0,0,,,,,,PVT2011,104,2,48,{SPACE},ESixSec,330599,483,331082,,,,,,,,,,,,,325585,0,0,,,,,,,,,,,,PVT2011,104,2,49,{SPACE},HNineSec,340113,463,340576,,,,,,,,,,,,,,,,,,,,,,332098,0,0,,,PVT2011,104,2,50,{SPACE},ITenSec,350594,412,351006,,,,,,,,,,,,,,,,,,,,,,,,,341581,0,0PVT2011,104,2,51,{SPACE},ATwoSec,353027,572,353599,352011,0,0,,,,,,,,,,,,,,,,,,,,,,,,PVT2011,104,2,52,{SPACE},ATwoSec,355626,300,355926,354611,0,0,,,,,,,,,,,,,,,,,,,,,,,,PVT2011,104,2,53,{SPACE},FSevenSec,362957,306,363263,,,,,,,,,,,,,,,,356943,0,0,,,,,,,,,PVT2011,104,2,54,{SPACE},BThreeSec,366290,338,366628,,,,364275,0,0,,,,,,,,,,,,,,,,,,,,,PVT2011,104,2,55,{SPACE},ITenSec,376654,424,377078,,,,,,,,,,,,,,,,,,,,,,,,,367641,0,0PVT2011,104,2,56,{SPACE},CFourSec,381103,501,381604,,,,,,,378088,0,0,,,,,,,,,,,,,,,,,,PVT2011,104,2,57,{SPACE},HNineSec,390634,408,391042,,,,,,,,,,,,,,,,,,,,,,382621,0,0,,,PVT2011,104,2,58,{SPACE},BThreeSec,394066,683,394749,,,,392051,0,0,,,,,,,,,,,,,,,,,,,,,PVT2011,104,2,59,{SPACE},DFiveSec,399782,469,400251,,,,,,,,,,395766,0,0,,,,,,,,,,,,,,,PVT2011,104,2,60,{SPACE},ESixSec,406280,519,406799,,,,,,,,,,,,,401266,0,0,,,,,,,,,,,,PVT2011,104,2,61,{SPACE},CFourSec,410829,364,411193,,,,,,,407814,0,0,,,,,,,,,,,,,,,,,,PVT2011,104,2,62,{SPACE},DFiveSec,416211,364,416575,,,,,,,,,,412197,0,0,,,,,,,,,,,,,,,PVT2011,104,2,63,{SPACE},BThreeSec,419593,366,419959,,,,417579,0,0,,,,,,,,,,,,,,,,,,,,,PVT2011,104,2,64,{SPACE},GEightSec,427991,527,428518,,,,,,,,,,,,,,,,,,,420978,0,0,,,,,,PVT2011,104,2,65,{SPACE},FSevenSec,435539,382,435921,,,,,,,,,,,,,,,,429525,0,0,,,,,,,,,PVT2011,104,2,66,{SPACE},GEightSec,443937,581,444518,,,,,,,,,,,,,,,,,,,436924,0,0,,,,,,PVT2011,104,2,67,{SPACE},ATwoSec,446537,2130,448667,445521,0,0,,,,,,,,,,,,,,,,,,,,,,,,PVT2011,104,2,68,{SPACE},ITenSec,458684,380,459064,,,,,,,,,,,,,,,,,,,,,,,,,449671,0,0PVT2011,104,2,69,{SPACE},FSevenSec,466082,2262,468344,,,,,,,,,,,,,,,,460068,0,0,,,,,,,,,PVT2011,104,2,70,{SPACE},HNineSec,477362,522,477884,,,,,,,,,,,,,,,,,,,,,,469349,0,0,,,PVT2011,104,2,71,{SPACE},ATwoSec,479912,699,480611,478896,0,0,,,,,,,,,,,,,,,,,,,,,,,,PVT2011,104,2,72,{SPACE},ESixSec,486643,386,487029,,,,,,,,,,,,,481629,0,0,,,,,,,,,,,,PVT2011,104,2,73,{SPACE},ATwoSec,489059,539,489598,488044,0,0,,,,,,,,,,,,,,,,,,,,,,,,PVT2011,104,2,74,{SPACE},DFiveSec,494625,1069,495694,,,,,,,,,,490610,0,0,,,,,,,,,,,,,,,PVT2011,104,2,75,{SPACE},ITenSec,505722,423,506145,,,,,,,,,,,,,,,,,,,,,,,,,496709,0,0PVT2011,104,2,76,{SPACE},HNineSec,515170,187,515357,,,,,,,,,,,,,,,,,,,,,,507156,3601,510757,,,PVT2011,104,2,77,{SPACE},CFourSec,519385,536,519921,,,,,,,516371,0,0,,,,,,,,,,,,,,,,,,PVT2011,104,2,78,{SPACE},FSevenSec,526950,330,527280,,,,,,,,,,,,,,,,520936,0,0,,,,,,,,,PVT2011,104,2,79,{SPACE},ESixSec,533298,767,534065,,,,,,,,,,,,,528284,0,0,,,,,,,,,,,,PVT2011,104,2,80,{SPACE},ESixSec,540097,376,540473,,,,,,,,,,,,,535083,0,0,,,,,,,,,,,,PVT2011,104,2,81,{SPACE},DFiveSec,545495,770,546265,,,,,,,,,,541481,0,0,,,,,,,,,,,,,,,PVT2011,104,2,82,{SPACE},ATwoSec,548295,730,549025,547279,0,0,,,,,,,,,,,,,,,,,,,,,,,,PVT2011,104,2,83,{SPACE},CFourSec,553043,482,553525,,,,,,,550029,0,0,,,,,,,,,,,,,,,,,,PVT2011,104,2,84,{SPACE},FSevenSec,560558,552,561110,,,,,,,,,,,,,,,,554543,0,0,,,,,,,,,PVT2011,104,2,85,{SPACE},BThreeSec,564141,840,564981,,,,562126,0,0,,,,,,,,,,,,,,,,,,,,,PVT2011,104,2,86,{SPACE},HNineSec,574005,489,574494,,,,,,,,,,,,,,,,,,,,,,565992,0,0,,,PVT2011,104,2,87,{SPACE},ITenSec,584519,436,584955,,,,,,,,,,,,,,,,,,,,,,,,,575506,0,0PVT2011,104,2,88,{SPACE},GEightSec,592984,408,593392,,,,,,,,,,,,,,,,,,,585970,0,0,,,,,,PVT2011,104,2,89,{SPACE},BThreeSec,596416,502,596918,,,,594401,0,0,,,,,,,,,,,,,,,,,,,,,PVT2011,104,2,90,{SPACE},GEightSec,604947,484,605431,,,,,,,,,,,,,,,,,,,597934,0,0,,,,,,PVT2011,104,2,91,{SPACE},FSevenSec,612462,637,613099,,,,,,,,,,,,,,,,606448,0,0,,,,,,,,,PVT2011,104,2,92,{SPACE},HNineSec,622126,436,622562,,,,,,,,,,,,,,,,,,,,,,614113,0,0,,,PVT2011,104,3,,,,,,,,,,,,,,,,,,,,,,,,,,,,,,,,,PVT2011,104,3,1,{SPACE},ESixSec,24428,595,25023,,,,,,,,,,,,,19413,0,0,,,,,,,,,,,,PVT2011,104,3,2,{SPACE},HNineSec,34042,424,34466,,,,,,,,,,,,,,,,,,,,,,26029,5659,31688,,,PVT2011,104,3,3,{SPACE},BThreeSec,37492,451,37943,,,,35477,0,0,,,,,,,,,,,,,,,,,,,,,PVT2011,104,3,4,{SPACE},HNineSec,46973,454,47427,,,,,,,,,,,,,,,,,,,,,,38959,0,0,,,PVT2011,104,3,5,{SPACE},CFourSec,51455,533,51988,,,,,,,48440,0,0,,,,,,,,,,,,,,,,,,PVT2011,104,3,6,{SPACE},GEightSec,60019,332,60351,,,,,,,,,,,,,,,,,,,53006,0,0,,,,,,PVT2011,104,3,7,{SPACE},FSevenSec,67384,380,67764,,,,,,,,,,,,,,,,61369,0,0,,,,,,,,,PVT2011,104,3,8,{SPACE},DFiveSec,72783,412,73195,,,,,,,,,,68768,0,0,,,,,,,,,,,,,,,PVT2011,104,3,9,{SPACE},BThreeSec,76215,423,76638,,,,74200,0,0,,,,,,,,,,,,,,,,,,,,,PVT2011,104,3,10,{SPACE},ITenSec,86663,675,87338,,,,,,,,,,,,,,,,,,,,,,,,,77649,0,0PVT2011,104,3,11,{SPACE},ATwoSec,89362,1211,90573,88347,0,0,,,,,,,,,,,,,,,,,,,,,,,,PVT2011,104,3,12,{SPACE},ITenSec,100593,375,100968,,,,,,,,,,,,,,,,,,,,,,,,,91579,0,0PVT2011,104,3,13,{SPACE},FSevenSec,107991,452,108443,,,,,,,,,,,,,,,,101977,0,0,,,,,,,,,PVT2011,104,3,14,{SPACE},ESixSec,114472,1008,115480,,,,,,,,,,,,,109458,0,0,,,,,,,,,,,,PVT2011,104,3,15,{SPACE},GEightSec,123504,632,124136,,,,,,,,,,,,,,,,,,,116490,0,0,,,,,,PVT2011,104,3,16,{SPACE},CFourSec,128169,405,128574,,,,,,,125154,0,0,,,,,,,,,,,,,,,,,,PVT2011,104,3,17,{SPACE},ATwoSec,130602,399,131001,129587,0,0,,,,,,,,,,,,,,,,,,,,,,,,PVT2011,104,3,18,{SPACE},DFiveSec,136034,1395,137429,,,,,,,,,,132019,0,0,,,,,,,,,,,,,,,PVT2011,104,3,19,{SPACE},CFourSec,141449,523,141972,,,,,,,138434,0,0,,,,,,,,,,,,,,,,,,PVT2011,104,3,20,{SPACE},DFiveSec,146998,356,147354,,,,,,,,,,142983,0,0,,,,,,,,,,,,,,,PVT2011,104,3,21,{SPACE},DFiveSec,152380,408,152788,,,,,,,,,,148365,0,0,,,,,,,,,,,,,,,PVT2011,104,3,22,{SPACE},ESixSec,158811,377,159188,,,,,,,,,,,,,153797,0,0,,,,,,,,,,,,PVT2011,104,3,23,{SPACE},FSevenSec,166210,359,166569,,,,,,,,,,,,,,,,160196,0,0,,,,,,,,,PVT2011,104,3,24,{SPACE},HNineSec,175591,293,175884,,,,,,,,,,,,,,,,,,,,,,167577,0,0,,,PVT2011,104,3,25,{SPACE},ESixSec,181906,483,182389,,,,,,,,,,,,,176891,0,0,,,,,,,,,,,,PVT2011,104,3,26,{SPACE},HNineSec,191420,414,191834,,,,,,,,,,,,,,,,,,,,,,183407,0,0,,,PVT2011,104,3,27,{SPACE},BThreeSec,194852,372,195224,,,,192838,0,0,,,,,,,,,,,,,,,,,,,,,PVT2011,104,3,28,{SPACE},ATwoSec,197252,806,198058,196237,0,0,,,,,,,,,,,,,,,,,,,,,,,,PVT2011,104,3,29,{SPACE},ITenSec,208082,567,208649,,,,,,,,,,,,,,,,,,,,,,,,,199069,0,0PVT2011,104,3,30,{SPACE},CFourSec,212681,748,213429,,,,,,,209667,0,0,,,,,,,,,,,,,,,,,,PVT2011,104,3,31,{SPACE},ITenSec,223445,402,223847,,,,,,,,,,,,,,,,,,,,,,,,,214432,0,0PVT2011,104,3,32,{SPACE},BThreeSec,226878,326,227204,,,,224863,0,0,,,,,,,,,,,,,,,,,,,,,PVT2011,104,3,33,{SPACE},FSevenSec,234226,318,234544,,,,,,,,,,,,,,,,228212,0,0,,,,,,,,,PVT2011,104,3,34,{SPACE},GEightSec,242574,366,242940,,,,,,,,,,,,,,,,,,,235560,0,0,,,,,,PVT2011,104,3,35,{SPACE},GEightSec,250972,373,251345,,,,,,,,,,,,,,,,,,,243958,0,0,,,,,,PVT2011,104,3,36,{SPACE},ATwoSec,253371,464,253835,252356,0,0,,,,,,,,,,,,,,,,,,,,,,,,PVT2011,104,3,37,{SPACE},FSevenSec,260853,383,261236,,,,,,,,,,,,,,,,254839,0,0,,,,,,,,,PVT2011,104,3,38,{SPACE},ATwoSec,263253,438,263691,262252,0,0,,,,,,,,,,,,,,,,,,,,,,,,PVT2011,104,3,39,{SPACE},ITenSec,273716,406,274122,,,,,,,,,,,,,,,,,,,,,,,,,264703,0,0PVT2011,104,3,40,{SPACE},DFiveSec,279148,369,279517,,,,,,,,,,275134,0,0,,,,,,,,,,,,,,,PVT2011,104,3,41,{SPACE},DFiveSec,284547,314,284861,,,,,,,,,,280532,0,0,,,,,,,,,,,,,,,PVT2011,104,3,42,{SPACE},ESixSec,290879,322,291201,,,,,,,,,,,,,285864,0,0,,,,,,,,,,,,PVT2011,104,3,43,{SPACE},ITenSec,301226,321,301547,,,,,,,,,,,,,,,,,,,,,,,,,292213,0,0PVT2011,104,3,44,{SPACE},ESixSec,307574,439,308013,,,,,,,,,,,,,302560,0,0,,,,,,,,,,,,PVT2011,104,3,45,{SPACE},CFourSec,312040,428,312468,,,,,,,309025,0,0,,,,,,,,,,,,,,,,,,PVT2011,104,3,46,{SPACE},HNineSec,321488,306,321794,,,,,,,,,,,,,,,,,,,,,,313474,0,0,,,PVT2011,104,3,47,{SPACE},GEightSec,329819,444,330263,,,,,,,,,,,,,,,,,,,322805,0,0,,,,,,PVT2011,104,3,48,{SPACE},FSevenSec,337284,432,337716,,,,,,,,,,,,,,,,331270,0,0,,,,,,,,,PVT2011,104,3,49,{SPACE},BThreeSec,340750,390,341140,,,,338735,0,0,,,,,,,,,,,,,,,,,,,,,PVT2011,104,3,50,{SPACE},BThreeSec,344165,406,344571,,,,342150,0,0,,,,,,,,,,,,,,,,,,,,,PVT2011,104,3,51,{SPACE},ATwoSec,346598,1145,347743,345583,0,0,,,,,,,,,,,,,,,,,,,,,,,,PVT2011,104,3,52,{SPACE},CFourSec,351763,316,352079,,,,,,,348749,0,0,,,,,,,,,,,,,,,,,,PVT2011,104,3,53,{SPACE},GEightSec,360095,356,360451,,,,,,,,,,,,,,,,,,,353082,0,0,,,,,,PVT2011,104,3,54,{SPACE},HNineSec,369476,439,369915,,,,,,,,,,,,,,,,,,,,,,361462,0,0,,,PVT2011,104,3,55,{SPACE},DFiveSec,374941,406,375347,,,,,,,,,,370927,0,0,,,,,,,,,,,,,,,PVT2011,104,3,56,{SPACE},BThreeSec,378373,638,379011,,,,376359,0,0,,,,,,,,,,,,,,,,,,,,,PVT2011,104,3,57,{SPACE},ATwoSec,381039,328,381367,380024,0,0,,,,,,,,,,,,,,,,,,,,,,,,PVT2011,104,3,58,{SPACE},ATwoSec,383389,310,383699,382374,0,0,,,,,,,,,,,,,,,,,,,,,,,,PVT2011,104,3,59,{SPACE},GEightSec,391720,442,392162,,,,,,,,,,,,,,,,,,,384706,0,0,,,,,,PVT2011,104,3,60,{SPACE},CFourSec,396186,397,396583,,,,,,,393171,0,0,,,,,,,,,,,,,,,,,,PVT2011,104,3,61,{SPACE},DFiveSec,401601,283,401884,,,,,,,,,,397587,0,0,,,,,,,,,,,,,,,PVT2011,104,3,62,{SPACE},FSevenSec,408916,424,409340,,,,,,,,,,,,,,,,402902,0,0,,,,,,,,,PVT2011,104,3,63,{SPACE},ITenSec,419363,305,419668,,,,,,,,,,,,,,,,,,,,,,,,,410350,0,0PVT2011,104,3,64,{SPACE},HNineSec,428694,331,429025,,,,,,,,,,,,,,,,,,,,,,420681,0,0,,,PVT2011,104,3,65,{SPACE},ITenSec,439042,295,439337,,,,,,,,,,,,,,,,,,,,,,,,,430029,0,0PVT2011,104,3,66,{SPACE},GEightSec,447356,1042,448398,,,,,,,,,,,,,,,,,,,440343,0,0,,,,,,PVT2011,104,3,67,{SPACE},FSevenSec,455421,344,455765,,,,,,,,,,,,,,,,449407,0,0,,,,,,,,,PVT2011,104,3,68,{SPACE},BThreeSec,458787,392,459179,,,,456772,0,0,,,,,,,,,,,,,,,,,,,,,PVT2011,104,3,69,{SPACE},CFourSec,463202,416,463618,,,,,,,460188,0,0,,,,,,,,,,,,,,,,,,PVT2011,104,3,70,{SPACE},HNineSec,472650,364,473014,,,,,,,,,,,,,,,,,,,,,,464637,0,0,,,PVT2011,104,3,71,{SPACE},ESixSec,479032,595,479627,,,,,,,,,,,,,474018,0,0,,,,,,,,,,,,PVT2011,104,3,72,{SPACE},ESixSec,485647,341,485988,,,,,,,,,,,,,480633,0,0,,,,,,,,,,,,PVT2011,104,3,73,{SPACE},CFourSec,490012,321,490333,,,,,,,486998,0,0,,,,,,,,,,,,,,,,,,PVT2011,104,3,74,{SPACE},HNineSec,499360,456,499816,,,,,,,,,,,,,,,,,,,,,,491347,0,0,,,PVT2011,104,3,75,{SPACE},CFourSec,503842,488,504330,,,,,,,500828,0,0,,,,,,,,,,,,,,,,,,PVT2011,104,3,76,{SPACE},GEightSec,512357,384,512741,,,,,,,,,,,,,,,,,,,505343,0,0,,,,,,PVT2011,104,3,77,{SPACE},ITenSec,522771,328,523099,,,,,,,,,,,,,,,,,,,,,,,,,513758,0,0PVT2011,104,3,78,{SPACE},BThreeSec,526120,601,526721,,,,524105,0,0,,,,,,,,,,,,,,,,,,,,,PVT2011,104,3,79,{SPACE},FSevenSec,533752,376,534128,,,,,,,,,,,,,,,,527738,0,0,,,,,,,,,PVT2011,104,3,80,{SPACE},DFiveSec,539150,384,539534,,,,,,,,,,535136,0,0,,,,,,,,,,,,,,,PVT2011,104,3,81,{SPACE},ESixSec,545565,279,545844,,,,,,,,,,,,,540551,0,0,,,,,,,,,,,,PVT2011,104,3,82,{SPACE},HNineSec,554863,395,555258,,,,,,,,,,,,,,,,,,,,,,546850,0,0,,,PVT2011,104,3,83,{SPACE},ATwoSec,557279,532,557811,556264,0,0,,,,,,,,,,,,,,,,,,,,,,,,PVT2011,104,3,84,{SPACE},ESixSec,563827,340,564167,,,,,,,,,,,,,558814,0,0,,,,,,,,,,,,PVT2011,104,3,85,{SPACE},BThreeSec,567193,557,567750,,,,565178,0,0,,,,,,,,,,,,,,,,,,,,,PVT2011,104,3,86,{SPACE},GEightSec,575774,1599,577373,,,,,,,,,,,,,,,,,,,568761,0,0,,,,,,PVT2011,104,3,87,{SPACE},DFiveSec,582389,312,582701,,,,,,,,,,578376,0,0,,,,,,,,,,,,,,,PVT2011,104,3,88,{SPACE},ATwoSec,584722,368,585090,583707,0,0,,,,,,,,,,,,,,,,,,,,,,,,PVT2011,104,3,89,{SPACE},FSevenSec,592120,631,592751,,,,,,,,,,,,,,,,586106,0,0,,,,,,,,,PVT2011,104,3,90,{SPACE},ITenSec,602768,686,603454,,,,,,,,,,,,,,,,,,,,,,,,,593755,0,0PVT2011,104,3,91,{SPACE},FSevenSec,610482,1032,611514,,,,,,,,,,,,,,,,604469,0,0,,,,,,,,,PVT2011,104,3,92,{SPACE},HNineSec,620530,381,620911,,,,,,,,,,,,,,,,,,,,,,612517,0,0,,,PVT2011,104,4,,,,,,,,,,,,,,,,,,,,,,,,,,,,,,,,,PVT2011,104,4,1,{SPACE},DFiveSec,57275,275,57550,,,,,,,,,,53260,0,0,,,,,,,,,,,,,,,PVT2011,104,4,2,{SPACE},ESixSec,63574,278,63852,,,,,,,,,,,,,58560,0,0,,,,,,,,,,,,PVT2011,104,4,3,{SPACE},ITenSec,73871,922,74793,,,,,,,,,,,,,,,,,,,,,,,,,64858,0,0PVT2011,104,4,4,{SPACE},FSevenSec,81819,454,82273,,,,,,,,,,,,,,,,75805,0,0,,,,,,,,,PVT2011,104,4,5,{SPACE},BThreeSec,85301,513,85814,,,,83287,0,0,,,,,,,,,,,,,,,,,,,,,PVT2011,104,4,6,{SPACE},FSevenSec,92833,809,93642,,,,,,,,,,,,,,,,86819,0,0,,,,,,,,,PVT2011,104,4,7,{SPACE},HNineSec,102664,676,103340,,,,,,,,,,,,,,,,,,,,,,94650,0,0,,,PVT2011,104,4,8,{SPACE},ATwoSec,105363,842,106205,104348,0,0,,,,,,,,,,,,,,,,,,,,,,,,PVT2011,104,4,9,{SPACE},DFiveSec,111228,553,111781,,,,,,,,,,107214,0,0,,,,,,,,,,,,,,,PVT2011,104,4,10,{SPACE},ATwoSec,113811,342,114153,112796,0,0,,,,,,,,,,,,,,,,,,,,,,,,PVT2011,104,4,11,{SPACE},CFourSec,118176,318,118494,,,,,,,115162,0,0,,,,,,,,,,,,,,,,,,PVT2011,104,4,12,{SPACE},ITenSec,128524,362,128886,,,,,,,,,,,,,,,,,,,,,,,,,119511,0,0PVT2011,104,4,13,{SPACE},BThreeSec,131906,589,132495,,,,129891,0,0,,,,,,,,,,,,,,,,,,,,,PVT2011,104,4,14,{SPACE},GEightSec,140521,432,140953,,,,,,,,,,,,,,,,,,,133507,4079,137586,,,,,,PVT2011,104,4,15,{SPACE},CFourSec,144986,358,145344,,,,,,,141972,0,0,,,,,,,,,,,,,,,,,,PVT2011,104,4,16,{SPACE},ESixSec,151368,358,151726,,,,,,,,,,,,,146354,0,0,,,,,,,,,,,,PVT2011,104,4,17,{SPACE},GEightSec,159749,393,160142,,,,,,,,,,,,,,,,,,,152735,0,0,,,,,,PVT2011,104,4,18,{SPACE},HNineSec,169163,346,169509,,,,,,,,,,,,,,,,,,,,,,161150,0,0,,,PVT2011,104,4,19,{SPACE},BThreeSec,172529,396,172925,,,,170514,0,0,,,,,,,,,,,,,,,,,,,,,PVT2011,104,4,20,{SPACE},CFourSec,176945,502,177447,,,,,,,173930,0,0,,,,,,,,,,,,,,,,,,PVT2011,104,4,21,{SPACE},ITenSec,187475,501,187976,,,,,,,,,,,,,,,,,,,,,,,,,178462,0,0PVT2011,104,4,22,{SPACE},GEightSec,196006,338,196344,,,,,,,,,,,,,,,,,,,188993,0,0,,,,,,PVT2011,104,4,23,{SPACE},BThreeSec,199372,293,199665,,,,197357,0,0,,,,,,,,,,,,,,,,,,,,,PVT2011,104,4,24,{SPACE},HNineSec,208686,267,208953,,,,,,,,,,,,,,,,,,,,,,200673,0,0,,,PVT2011,104,4,25,{SPACE},FSevenSec,215985,381,216366,,,,,,,,,,,,,,,,209971,0,0,,,,,,,,,PVT2011,104,4,26,{SPACE},CFourSec,220383,577,220960,,,,,,,217369,0,0,,,,,,,,,,,,,,,,,,PVT2011,104,4,27,{SPACE},GEightSec,228981,317,229298,,,,,,,,,,,,,,,,,,,221968,0,0,,,,,,PVT2011,104,4,28,{SPACE},ESixSec,235330,682,236012,,,,,,,,,,,,,230316,0,0,,,,,,,,,,,,PVT2011,104,4,29,{SPACE},ESixSec,242045,334,242379,,,,,,,,,,,,,237030,0,0,,,,,,,,,,,,PVT2011,104,4,30,{SPACE},DFiveSec,247410,765,248175,,,,,,,,,,243396,0,0,,,,,,,,,,,,,,,PVT2011,104,4,31,{SPACE},DFiveSec,253208,1163,254371,,,,,,,,,,249194,0,0,,,,,,,,,,,,,,,PVT2011,104,4,32,{SPACE},ATwoSec,256391,906,257297,255376,0,0,,,,,,,,,,,,,,,,,,,,,,,,PVT2011,104,4,33,{SPACE},HNineSec,266322,792,267114,,,,,,,,,,,,,,,,,,,,,,258308,0,0,,,PVT2011,104,4,34,{SPACE},ITenSec,277136,363,277499,,,,,,,,,,,,,,,,,,,,,,,,,268123,0,0PVT2011,104,4,35,{SPACE},ATwoSec,279518,411,279929,278503,0,0,,,,,,,,,,,,,,,,,,,,,,,,PVT2011,104,4,36,{SPACE},FSevenSec,286950,278,287228,,,,,,,,,,,,,,,,280936,0,0,,,,,,,,,PVT2011,104,4,37,{SPACE},BThreeSec,290249,508,290757,,,,288234,0,0,,,,,,,,,,,,,,,,,,,,,PVT2011,104,4,38,{SPACE},ESixSec,296781,333,297114,,,,,,,,,,,,,291766,0,0,,,,,,,,,,,,PVT2011,104,4,39,{SPACE},CFourSec,301146,287,301433,,,,,,,298132,0,0,,,,,,,,,,,,,,,,,,PVT2011,104,4,40,{SPACE},DFiveSec,306461,644,307105,,,,,,,,,,302447,0,0,,,,,,,,,,,,,,,PVT2011,104,4,41,{SPACE},ESixSec,313126,354,313480,,,,,,,,,,,,,308112,0,0,,,,,,,,,,,,PVT2011,104,4,42,{SPACE},HNineSec,322507,355,322862,,,,,,,,,,,,,,,,,,,,,,314494,0,0,,,PVT2011,104,4,43,{SPACE},CFourSec,326890,359,327249,,,,,,,323875,0,0,,,,,,,,,,,,,,,,,,PVT2011,104,4,44,{SPACE},GEightSec,335271,637,335908,,,,,,,,,,,,,,,,,,,328257,0,0,,,,,,PVT2011,104,4,45,{SPACE},ITenSec,345935,330,346265,,,,,,,,,,,,,,,,,,,,,,,,,336922,0,0PVT2011,104,4,46,{SPACE},ATwoSec,348284,463,348747,347269,0,0,,,,,,,,,,,,,,,,,,,,,,,,PVT2011,104,4,47,{SPACE},FSevenSec,355765,396,356161,,,,,,,,,,,,,,,,349752,0,0,,,,,,,,,PVT2011,104,4,48,{SPACE},ITenSec,366179,356,366535,,,,,,,,,,,,,,,,,,,,,,,,,357166,0,0PVT2011,104,4,49,{SPACE},DFiveSec,371561,525,372086,,,,,,,,,,367547,0,0,,,,,,,,,,,,,,,PVT2011,104,4,50,{SPACE},GEightSec,380109,400,380509,,,,,,,,,,,,,,,,,,,373096,0,0,,,,,,PVT2011,104,4,51,{SPACE},FSevenSec,387541,396,387937,,,,,,,,,,,,,,,,381527,0,0,,,,,,,,,PVT2011,104,4,52,{SPACE},HNineSec,396955,440,397395,,,,,,,,,,,,,,,,,,,,,,388942,0,0,,,PVT2011,104,4,53,{SPACE},ATwoSec,399421,345,399766,398406,0,0,,,,,,,,,,,,,,,,,,,,,,,,PVT2011,104,4,54,{SPACE},BThreeSec,402787,390,403177,,,,400772,0,0,,,,,,,,,,,,,,,,,,,,,PVT2011,104,4,55,{SPACE},CFourSec,407202,475,407677,,,,,,,404188,0,0,,,,,,,,,,,,,,,,,,PVT2011,104,4,56,{SPACE},BThreeSec,410701,394,411095,,,,408687,0,0,,,,,,,,,,,,,,,,,,,,,PVT2011,104,4,57,{SPACE},BThreeSec,414117,278,414395,,,,412102,0,0,,,,,,,,,,,,,,,,,,,,,PVT2011,104,4,58,{SPACE},ITenSec,424415,1778,426193,,,,,,,,,,,,,,,,,,,,,,,,,415401,0,0PVT2011,104,4,59,{SPACE},ATwoSec,428214,1458,429672,427198,0,0,,,,,,,,,,,,,,,,,,,,,,,,PVT2011,104,4,60,{SPACE},FSevenSec,436695,655,437350,,,,,,,,,,,,,,,,430681,0,0,,,,,,,,,PVT2011,104,4,61,{SPACE},CFourSec,441377,709,442086,,,,,,,438362,0,0,,,,,,,,,,,,,,,,,,PVT2011,104,4,62,{SPACE},FSevenSec,449108,339,449447,,,,,,,,,,,,,,,,443094,0,0,,,,,,,,,PVT2011,104,4,63,{SPACE},DFiveSec,454474,407,454881,,,,,,,,,,450459,0,0,,,,,,,,,,,,,,,PVT2011,104,4,64,{SPACE},HNineSec,463904,428,464332,,,,,,,,,,,,,,,,,,,,,,455891,0,0,,,PVT2011,104,4,65,{SPACE},ATwoSec,466354,649,467003,465339,0,0,,,,,,,,,,,,,,,,,,,,,,,,PVT2011,104,4,66,{SPACE},ESixSec,473035,684,473719,,,,,,,,,,,,,468021,0,0,,,,,,,,,,,,PVT2011,104,4,67,{SPACE},ITenSec,483749,655,484404,,,,,,,,,,,,,,,,,,,,,,,,,474736,0,0PVT2011,104,4,68,{SPACE},HNineSec,493430,582,494012,,,,,,,,,,,,,,,,,,,,,,485417,0,0,,,PVT2011,104,4,69,{SPACE},GEightSec,502028,592,502620,,,,,,,,,,,,,,,,,,,495015,0,0,,,,,,PVT2011,104,4,70,{SPACE},GEightSec,510642,547,511189,,,,,,,,,,,,,,,,,,,503629,0,0,,,,,,PVT2011,104,4,71,{SPACE},ESixSec,517207,437,517644,,,,,,,,,,,,,512193,0,0,,,,,,,,,,,,PVT2011,104,4,72,{SPACE},DFiveSec,522673,560,523233,,,,,,,,,,518658,0,0,,,,,,,,,,,,,,,PVT2011,104,4,73,{SPACE},BThreeSec,526255,635,526890,,,,524240,0,0,,,,,,,,,,,,,,,,,,,,,PVT2011,104,4,74,{SPACE},HNineSec,535919,425,536344,,,,,,,,,,,,,,,,,,,,,,527906,0,0,,,PVT2011,104,4,75,{SPACE},ATwoSec,538369,640,539009,537354,0,0,,,,,,,,,,,,,,,,,,,,,,,,PVT2011,104,4,76,{SPACE},ITenSec,549033,352,549385,,,,,,,,,,,,,,,,,,,,,,,,,540020,0,0PVT2011,104,4,77,{SPACE},HNineSec,558414,987,559401,,,,,,,,,,,,,,,,,,,,,,550400,6795,557195,,,PVT2011,104,4,78,{SPACE},CFourSec,563429,334,563763,,,,,,,560414,0,0,,,,,,,,,,,,,,,,,,PVT2011,104,4,79,{SPACE},BThreeSec,566795,495,567290,,,,564780,0,0,,,,,,,,,,,,,,,,,,,,,PVT2011,104,4,80,{SPACE},FSevenSec,574310,312,574622,,,,,,,,,,,,,,,,568296,0,0,,,,,,,,,PVT2011,104,4,81,{SPACE},DFiveSec,579641,313,579954,,,,,,,,,,575627,0,0,,,,,,,,,,,,,,,PVT2011,104,4,82,{SPACE},DFiveSec,584973,348,585321,,,,,,,,,,580959,0,0,,,,,,,,,,,,,,,PVT2011,104,4,83,{SPACE},ITenSec,595337,259,595596,,,,,,,,,,,,,,,,,,,,,,,,,586324,0,0PVT2011,104,4,84,{SPACE},ESixSec,601619,287,601906,,,,,,,,,,,,,596605,0,0,,,,,,,,,,,,PVT2011,104,4,85,{SPACE},GEightSec,609934,367,610301,,,,,,,,,,,,,,,,,,,602920,0,0,,,,,,PVT2011,104,4,86,{SPACE},GEightSec,618332,668,619000,,,,,,,,,,,,,,,,,,,611318,0,0,,,,,,PVT2011,104,4,87,{SPACE},CFourSec,623030,583,623613,,,,,,,620016,0,0,,,,,,,,,,,,,,,,,,PVT2011,104,4,88,{SPACE},FSevenSec,630645,741,631386,,,,,,,,,,,,,,,,624631,0,0,,,,,,,,,PVT2011,104,4,89,{SPACE},ESixSec,637410,358,637768,,,,,,,,,,,,,632396,0,0,,,,,,,,,,,,PVT2011,104,4,90,{SPACE},ATwoSec,639793,333,640126,638778,0,0,,,,,,,,,,,,,,,,,,,,,,,,PVT2011,104,4,91,{SPACE},FSevenSec,647158,411,647569,,,,,,,,,,,,,,,,641142,0,0,,,,,,,,,PVT2011,104,4,92,{SPACE},HNineSec,656588,342,656930,,,,,,,,,,,,,,,,,,,,,,648575,0,0,,,PVT2011,104,5,,,,,,,,,,,,,,,,,,,,,,,,,,,,,,,,,PVT2011,104,5,1,{SPACE},BThreeSec,27388,701,28089,,,,25372,0,0,,,,,,,,,,,,,,,,,,,,,PVT2011,104,5,2,{SPACE},ITenSec,38119,317,38436,,,,,,,,,,,,,,,,,,,,,,,,,29106,0,0PVT2011,104,5,3,{SPACE},FSevenSec,45467,309,45776,,,,,,,,,,,,,,,,39453,0,0,,,,,,,,,PVT2011,104,5,4,{SPACE},ITenSec,55797,310,56107,,,,,,,,,,,,,,,,,,,,,,,,,46784,0,0PVT2011,104,5,5,{SPACE},ESixSec,62129,366,62495,,,,,,,,,,,,,57115,0,0,,,,,,,,,,,,PVT2011,104,5,6,{SPACE},ATwoSec,64529,364,64893,63513,0,0,,,,,,,,,,,,,,,,,,,,,,,,PVT2011,104,5,7,{SPACE},HNineSec,73909,278,74187,,,,,,,,,,,,,,,,,,,,,,65896,0,0,,,PVT2011,104,5,8,{SPACE},ATwoSec,76209,533,76742,75194,0,0,,,,,,,,,,,,,,,,,,,,,,,,PVT2011,104,5,9,{SPACE},GEightSec,84773,342,85115,,,,,,,,,,,,,,,,,,,77760,0,0,,,,,,PVT2011,104,5,10,{SPACE},HNineSec,94138,362,94500,,,,,,,,,,,,,,,,,,,,,,86124,0,0,,,PVT2011,104,5,11,{SPACE},FSevenSec,101519,359,101878,,,,,,,,,,,,,,,,95505,0,0,,,,,,,,,PVT2011,104,5,12,{SPACE},ESixSec,107901,393,108294,,,,,,,,,,,,,102887,0,0,,,,,,,,,,,,PVT2011,104,5,13,{SPACE},CFourSec,112316,292,112608,,,,,,,109302,0,0,,,,,,,,,,,,,,,,,,PVT2011,104,5,14,{SPACE},DFiveSec,117632,383,118015,,,,,,,,,,113617,0,0,,,,,,,,,,,,,,,PVT2011,104,5,15,{SPACE},GEightSec,126046,283,126329,,,,,,,,,,,,,,,,,,,119032,0,0,,,,,,PVT2011,104,5,16,{SPACE},BThreeSec,129362,500,129862,,,,127347,0,0,,,,,,,,,,,,,,,,,,,,,PVT2011,104,5,17,{SPACE},CFourSec,133894,335,134229,,,,,,,130879,0,0,,,,,,,,,,,,,,,,,,PVT2011,104,5,18,{SPACE},DFiveSec,139259,296,139555,,,,,,,,,,135245,0,0,,,,,,,,,,,,,,,PVT2011,104,5,19,{SPACE},HNineSec,148574,283,148857,,,,,,,,,,,,,,,,,,,,,,140560,0,0,,,PVT2011,104,5,20,{SPACE},GEightSec,156888,416,157304,,,,,,,,,,,,,,,,,,,149875,0,0,,,,,,PVT2011,104,5,21,{SPACE},HNineSec,166336,402,166738,,,,,,,,,,,,,,,,,,,,,,158322,0,0,,,PVT2011,104,5,22,{SPACE},ATwoSec,168769,448,169217,167753,0,0,,,,,,,,,,,,,,,,,,,,,,,,PVT2011,104,5,23,{SPACE},BThreeSec,172234,401,172635,,,,170220,0,0,,,,,,,,,,,,,,,,,,,,,PVT2011,104,5,24,{SPACE},ATwoSec,174667,256,174923,173652,0,0,,,,,,,,,,,,,,,,,,,,,,,,PVT2011,104,5,25,{SPACE},ESixSec,180949,407,181356,,,,,,,,,,,,,175935,0,0,,,,,,,,,,,,PVT2011,104,5,26,{SPACE},FSevenSec,188380,429,188809,,,,,,,,,,,,,,,,182366,0,0,,,,,,,,,PVT2011,104,5,27,{SPACE},GEightSec,196828,564,197392,,,,,,,,,,,,,,,,,,,189814,0,0,,,,,,PVT2011,104,5,28,{SPACE},ITenSec,207409,454,207863,,,,,,,,,,,,,,,,,,,,,,,,,198396,0,0PVT2011,104,5,29,{SPACE},DFiveSec,212891,444,213335,,,,,,,,,,208876,0,0,,,,,,,,,,,,,,,PVT2011,104,5,30,{SPACE},ITenSec,223355,405,223760,,,,,,,,,,,,,,,,,,,,,,,,,214341,135,214476PVT2011,104,5,31,{SPACE},CFourSec,227787,406,228193,,,,,,,224772,0,0,,,,,,,,,,,,,,,,,,PVT2011,104,5,32,{SPACE},DFiveSec,233219,317,233536,,,,,,,,,,229204,0,0,,,,,,,,,,,,,,,PVT2011,104,5,33,{SPACE},CFourSec,237568,295,237863,,,,,,,234553,0,0,,,,,,,,,,,,,,,,,,PVT2011,104,5,34,{SPACE},ESixSec,243883,336,244219,,,,,,,,,,,,,238868,0,0,,,,,,,,,,,,PVT2011,104,5,35,{SPACE},BThreeSec,247248,676,247924,,,,245234,0,0,,,,,,,,,,,,,,,,,,,,,PVT2011,104,5,36,{SPACE},FSevenSec,254946,316,255262,,,,,,,,,,,,,,,,248933,0,0,,,,,,,,,PVT2011,104,5,37,{SPACE},ESixSec,261295,357,261652,,,,,,,,,,,,,256281,0,0,,,,,,,,,,,,PVT2011,104,5,38,{SPACE},DFiveSec,266677,365,267042,,,,,,,,,,262662,0,0,,,,,,,,,,,,,,,PVT2011,104,5,39,{SPACE},ITenSec,277057,395,277452,,,,,,,,,,,,,,,,,,,,,,,,,268045,0,0PVT2011,104,5,40,{SPACE},FSevenSec,284472,371,284843,,,,,,,,,,,,,,,,278458,0,0,,,,,,,,,PVT2011,104,5,41,{SPACE},ITenSec,294870,354,295224,,,,,,,,,,,,,,,,,,,,,,,,,285856,0,0PVT2011,104,5,42,{SPACE},HNineSec,304250,424,304674,,,,,,,,,,,,,,,,,,,,,,296237,0,0,,,PVT2011,104,5,43,{SPACE},GEightSec,312698,409,313107,,,,,,,,,,,,,,,,,,,305685,0,0,,,,,,PVT2011,104,5,44,{SPACE},BThreeSec,316131,517,316648,,,,314116,0,0,,,,,,,,,,,,,,,,,,,,,PVT2011,104,5,45,{SPACE},GEightSec,324679,366,325045,,,,,,,,,,,,,,,,,,,317665,0,0,,,,,,PVT2011,104,5,46,{SPACE},ESixSec,331077,346,331423,,,,,,,,,,,,,326063,0,0,,,,,,,,,,,,PVT2011,104,5,47,{SPACE},CFourSec,335442,408,335850,,,,,,,332428,0,0,,,,,,,,,,,,,,,,,,PVT2011,104,5,48,{SPACE},BThreeSec,338875,421,339296,,,,336860,0,0,,,,,,,,,,,,,,,,,,,,,PVT2011,104,5,49,{SPACE},DFiveSec,344324,327,344651,,,,,,,,,,340309,0,0,,,,,,,,,,,,,,,PVT2011,104,5,50,{SPACE},ATwoSec,346673,382,347055,345658,0,0,,,,,,,,,,,,,,,,,,,,,,,,PVT2011,104,5,51,{SPACE},ATwoSec,349089,527,349616,348074,0,0,,,,,,,,,,,,,,,,,,,,,,,,PVT2011,104,5,52,{SPACE},CFourSec,353638,454,354092,,,,,,,350623,0,0,,,,,,,,,,,,,,,,,,PVT2011,104,5,53,{SPACE},FSevenSec,361119,382,361501,,,,,,,,,,,,,,,,355105,0,0,,,,,,,,,PVT2011,104,5,54,{SPACE},HNineSec,370517,330,370847,,,,,,,,,,,,,,,,,,,,,,362504,0,0,,,PVT2011,104,5,55,{SPACE},CFourSec,374866,591,375457,,,,,,,371851,0,0,,,,,,,,,,,,,,,,,,PVT2011,104,5,56,{SPACE},BThreeSec,378481,486,378967,,,,376467,0,0,,,,,,,,,,,,,,,,,,,,,PVT2011,104,5,57,{SPACE},ESixSec,384996,419,385415,,,,,,,,,,,,,379982,0,0,,,,,,,,,,,,PVT2011,104,5,58,{SPACE},GEightSec,393444,368,393812,,,,,,,,,,,,,,,,,,,386431,0,0,,,,,,PVT2011,104,5,59,{SPACE},FSevenSec,400842,395,401237,,,,,,,,,,,,,,,,394829,0,0,,,,,,,,,PVT2011,104,5,60,{SPACE},DFiveSec,406258,470,406728,,,,,,,,,,402243,0,0,,,,,,,,,,,,,,,PVT2011,104,5,61,{SPACE},GEightSec,414755,320,415075,,,,,,,,,,,,,,,,,,,407742,0,0,,,,,,PVT2011,104,5,62,{SPACE},BThreeSec,418105,746,418851,,,,416090,0,0,,,,,,,,,,,,,,,,,,,,,PVT2011,104,5,63,{SPACE},FSevenSec,425886,472,426358,,,,,,,,,,,,,,,,419871,0,0,,,,,,,,,PVT2011,104,5,64,{SPACE},HNineSec,435384,385,435769,,,,,,,,,,,,,,,,,,,,,,427370,0,0,,,PVT2011,104,5,65,{SPACE},DFiveSec,440799,377,441176,,,,,,,,,,436784,0,0,,,,,,,,,,,,,,,PVT2011,104,5,66,{SPACE},CFourSec,445198,439,445637,,,,,,,442183,0,0,,,,,,,,,,,,,,,,,,PVT2011,104,5,67,{SPACE},ESixSec,451663,411,452074,,,,,,,,,,,,,446649,0,0,,,,,,,,,,,,PVT2011,104,5,68,{SPACE},ITenSec,462093,307,462400,,,,,,,,,,,,,,,,,,,,,,,,,453080,0,0PVT2011,104,5,69,{SPACE},HNineSec,471424,426,471850,,,,,,,,,,,,,,,,,,,,,,463411,0,0,,,PVT2011,104,5,70,{SPACE},ATwoSec,473874,467,474341,472859,0,0,,,,,,,,,,,,,,,,,,,,,,,,PVT2011,104,5,71,{SPACE},ATwoSec,476373,461,476834,475358,0,0,,,,,,,,,,,,,,,,,,,,,,,,PVT2011,104,5,72,{SPACE},ITenSec,486854,302,487156,,,,,,,,,,,,,,,,,,,,,,,,,477841,0,0PVT2011,104,5,73,{SPACE},DFiveSec,492186,390,492576,,,,,,,,,,488171,0,0,,,,,,,,,,,,,,,PVT2011,104,5,74,{SPACE},GEightSec,500600,514,501114,,,,,,,,,,,,,,,,,,,493587,0,0,,,,,,PVT2011,104,5,75,{SPACE},ESixSec,507132,469,507601,,,,,,,,,,,,,502118,0,0,,,,,,,,,,,,PVT2011,104,5,76,{SPACE},FSevenSec,514630,425,515055,,,,,,,,,,,,,,,,508616,0,0,,,,,,,,,PVT2011,104,5,77,{SPACE},CFourSec,519079,221,519300,,,,,,,516064,0,0,,,,,,,,,,,,,,,,,,PVT2011,104,5,78,{SPACE},ESixSec,525327,336,525663,,,,,,,,,,,,,520313,4379,524692,,,,,,,,,,,,PVT2011,104,5,79,{SPACE},ITenSec,535691,680,536371,,,,,,,,,,,,,,,,,,,,,,,,,526678,0,0PVT2011,104,5,80,{SPACE},ATwoSec,538390,424,538814,537375,0,0,,,,,,,,,,,,,,,,,,,,,,,,PVT2011,104,5,81,{SPACE},ITenSec,548838,397,549235,,,,,,,,,,,,,,,,,,,,,,,,,539825,0,0PVT2011,104,5,82,{SPACE},HNineSec,558252,421,558673,,,,,,,,,,,,,,,,,,,,,,550239,0,0,,,PVT2011,104,5,83,{SPACE},GEightSec,566700,495,567195,,,,,,,,,,,,,,,,,,,559686,0,0,,,,,,PVT2011,104,5,84,{SPACE},BThreeSec,570216,386,570602,,,,568201,0,0,,,,,,,,,,,,,,,,,,,,,PVT2011,104,5,85,{SPACE},BThreeSec,573631,464,574095,,,,571617,0,0,,,,,,,,,,,,,,,,,,,,,PVT2011,104,5,86,{SPACE},CFourSec,578114,916,579030,,,,,,,575099,0,0,,,,,,,,,,,,,,,,,,PVT2011,104,5,87,{SPACE},DFiveSec,584062,343,584405,,,,,,,,,,580046,0,0,,,,,,,,,,,,,,,PVT2011,104,5,88,{SPACE},ATwoSec,586428,397,586825,585413,0,0,,,,,,,,,,,,,,,,,,,,,,,,PVT2011,104,5,89,{SPACE},HNineSec,595842,530,596372,,,,,,,,,,,,,,,,,,,,,,587829,0,0,,,PVT2011,104,5,90,{SPACE},FSevenSec,603391,706,604097,,,,,,,,,,,,,,,,597377,0,0,,,,,,,,,PVT2011,104,5,91,{SPACE},FSevenSec,611122,438,611560,,,,,,,,,,,,,,,,605108,0,0,,,,,,,,,PVT2011,104,5,92,{SPACE},BThreeSec,614588,638,615226,,,,612573,0,0,,,,,,,,,,,,,,,,,,,,,PVT2011,104,5,93,{SPACE},GEightSec,623252,418,623670,,,,,,,,,,,,,,,,,,,616238,0,0,,,,,,PVT2011,104,5,94,{SPACE},GEightSec,631700,371,632071,,,,,,,,,,,,,,,,,,,624686,0,0,,,,,,PVT2011,104,6,,,,,,,,,,,,,,,,,,,,,,,,,,,,,,,,,PVT2011,104,6,1,{SPACE},HNineSec,29537,316,29853,,,,,,,,,,,,,,,,,,,,,,21523,0,0,,,PVT2011,104,6,2,{SPACE},CFourSec,33886,470,34356,,,,,,,30872,0,0,,,,,,,,,,,,,,,,,,PVT2011,104,6,3,{SPACE},BThreeSec,37385,338,37723,,,,35370,0,0,,,,,,,,,,,,,,,,,,,,,PVT2011,104,6,4,{SPACE},ITenSec,47749,296,48045,,,,,,,,,,,,,,,,,,,,,,,,,38736,0,0PVT2011,104,6,5,{SPACE},ESixSec,54064,391,54455,,,,,,,,,,,,,49050,0,0,,,,,,,,,,,,PVT2011,104,6,6,{SPACE},FSevenSec,61479,305,61784,,,,,,,,,,,,,,,,55465,0,0,,,,,,,,,PVT2011,104,6,7,{SPACE},BThreeSec,64812,389,65201,,,,62797,0,0,,,,,,,,,,,,,,,,,,,,,PVT2011,104,6,8,{SPACE},GEightSec,73226,354,73580,,,,,,,,,,,,,,,,,,,66213,0,0,,,,,,PVT2011,104,6,9,{SPACE},ATwoSec,75609,346,75955,74594,0,0,,,,,,,,,,,,,,,,,,,,,,,,PVT2011,104,6,10,{SPACE},ESixSec,81974,282,82256,,,,,,,,,,,,,76960,0,0,,,,,,,,,,,,PVT2011,104,6,11,{SPACE},FSevenSec,89272,291,89563,,,,,,,,,,,,,,,,83259,0,0,,,,,,,,,PVT2011,104,6,12,{SPACE},ITenSec,99586,300,99886,,,,,,,,,,,,,,,,,,,,,,,,,90573,0,0PVT2011,104,6,13,{SPACE},DFiveSec,104918,341,105259,,,,,,,,,,100902,0,0,,,,,,,,,,,,,,,PVT2011,104,6,14,{SPACE},HNineSec,114282,458,114740,,,,,,,,,,,,,,,,,,,,,,106269,0,0,,,PVT2011,104,6,15,{SPACE},CFourSec,118765,828,119593,,,,,,,115750,0,0,,,,,,,,,,,,,,,,,,PVT2011,104,6,16,{SPACE},GEightSec,127612,713,128325,,,,,,,,,,,,,,,,,,,120599,0,0,,,,,,PVT2011,104,6,17,{SPACE},ATwoSec,130345,317,130662,129330,0,0,,,,,,,,,,,,,,,,,,,,,,,,PVT2011,104,6,18,{SPACE},DFiveSec,135694,489,136183,,,,,,,,,,131679,0,0,,,,,,,,,,,,,,,PVT2011,104,6,19,{SPACE},HNineSec,145208,363,145571,,,,,,,,,,,,,,,,,,,,,,137194,0,0,,,PVT2011,104,6,20,{SPACE},DFiveSec,150590,426,151016,,,,,,,,,,146575,0,0,,,,,,,,,,,,,,,PVT2011,104,6,21,{SPACE},FSevenSec,158038,256,158294,,,,,,,,,,,,,,,,152024,0,0,,,,,,,,,PVT2011,104,6,22,{SPACE},ITenSec,168319,323,168642,,,,,,,,,,,,,,,,,,,,,,,,,159305,0,0PVT2011,104,6,23,{SPACE},DFiveSec,173667,468,174135,,,,,,,,,,169653,0,0,,,,,,,,,,,,,,,PVT2011,104,6,24,{SPACE},GEightSec,182165,303,182468,,,,,,,,,,,,,,,,,,,175151,0,0,,,,,,PVT2011,104,6,25,{SPACE},BThreeSec,185497,283,185780,,,,183483,0,0,,,,,,,,,,,,,,,,,,,,,PVT2011,104,6,26,{SPACE},GEightSec,193812,332,194144,,,,,,,,,,,,,,,,,,,186798,0,0,,,,,,PVT2011,104,6,27,{SPACE},ESixSec,200177,334,200511,,,,,,,,,,,,,195163,0,0,,,,,,,,,,,,PVT2011,104,6,28,{SPACE},HNineSec,209541,301,209842,,,,,,,,,,,,,,,,,,,,,,201528,0,0,,,PVT2011,104,6,29,{SPACE},ATwoSec,211874,715,212589,210859,0,0,,,,,,,,,,,,,,,,,,,,,,,,PVT2011,104,6,30,{SPACE},CFourSec,216606,383,216989,,,,,,,213592,0,0,,,,,,,,,,,,,,,,,,PVT2011,104,6,31,{SPACE},CFourSec,221022,241,221263,,,,,,,218007,0,0,,,,,,,,,,,,,,,,,,PVT2011,104,6,32,{SPACE},ATwoSec,223288,573,223861,222273,0,0,,,,,,,,,,,,,,,,,,,,,,,,PVT2011,104,6,33,{SPACE},FSevenSec,230886,324,231210,,,,,,,,,,,,,,,,224872,0,0,,,,,,,,,PVT2011,104,6,34,{SPACE},ITenSec,241233,288,241521,,,,,,,,,,,,,,,,,,,,,,,,,232220,0,0PVT2011,104,6,35,{SPACE},ESixSec,247548,320,247868,,,,,,,,,,,,,242534,0,0,,,,,,,,,,,,PVT2011,104,6,36,{SPACE},BThreeSec,250897,391,251288,,,,248882,0,0,,,,,,,,,,,,,,,,,,,,,PVT2011,104,6,37,{SPACE},BThreeSec,254313,248,254561,,,,252298,0,0,,,,,,,,,,,,,,,,,,,,,PVT2011,104,6,38,{SPACE},CFourSec,258579,286,258865,,,,,,,255564,0,0,,,,,,,,,,,,,,,,,,PVT2011,104,6,39,{SPACE},ATwoSec,260895,291,261186,259880,0,0,,,,,,,,,,,,,,,,,,,,,,,,PVT2011,104,6,40,{SPACE},DFiveSec,266210,323,266533,,,,,,,,,,262196,0,0,,,,,,,,,,,,,,,PVT2011,104,6,41,{SPACE},GEightSec,274558,301,274859,,,,,,,,,,,,,,,,,,,267544,0,0,,,,,,PVT2011,104,6,42,{SPACE},ITenSec,284889,424,285313,,,,,,,,,,,,,,,,,,,,,,,,,275876,0,0PVT2011,104,6,43,{SPACE},ATwoSec,287338,391,287729,286323,0,0,,,,,,,,,,,,,,,,,,,,,,,,PVT2011,104,6,44,{SPACE},GEightSec,295753,414,296167,,,,,,,,,,,,,,,,,,,288739,0,0,,,,,,PVT2011,104,6,45,{SPACE},BThreeSec,299185,274,299459,,,,297170,0,0,,,,,,,,,,,,,,,,,,,,,PVT2011,104,6,46,{SPACE},ESixSec,305483,1404,306887,,,,,,,,,,,,,300469,0,0,,,,,,,,,,,,PVT2011,104,6,47,{SPACE},DFiveSec,311915,332,312247,,,,,,,,,,307901,0,0,,,,,,,,,,,,,,,PVT2011,104,6,48,{SPACE},FSevenSec,319263,469,319732,,,,,,,,,,,,,,,,313250,0,0,,,,,,,,,PVT2011,104,6,49,{SPACE},ITenSec,329761,301,330062,,,,,,,,,,,,,,,,,,,,,,,,,320747,0,0PVT2011,104,6,50,{SPACE},HNineSec,339091,330,339421,,,,,,,,,,,,,,,,,,,,,,331078,0,0,,,PVT2011,104,6,51,{SPACE},ESixSec,345440,312,345752,,,,,,,,,,,,,340426,0,0,,,,,,,,,,,,PVT2011,104,6,52,{SPACE},HNineSec,354771,379,355150,,,,,,,,,,,,,,,,,,,,,,346757,0,0,,,PVT2011,104,6,53,{SPACE},FSevenSec,362169,372,362541,,,,,,,,,,,,,,,,356155,0,0,,,,,,,,,PVT2011,104,6,54,{SPACE},CFourSec,366568,347,366915,,,,,,,363553,0,0,,,,,,,,,,,,,,,,,,PVT2011,104,6,55,{SPACE},HNineSec,375932,335,376267,,,,,,,,,,,,,,,,,,,,,,367919,0,0,,,PVT2011,104,6,56,{SPACE},FSevenSec,383297,353,383650,,,,,,,,,,,,,,,,377283,0,0,,,,,,,,,PVT2011,104,6,57,{SPACE},GEightSec,391678,339,392017,,,,,,,,,,,,,,,,,,,384664,0,0,,,,,,PVT2011,104,6,58,{SPACE},ATwoSec,394044,307,394351,393029,0,0,,,,,,,,,,,,,,,,,,,,,,,,PVT2011,104,6,59,{SPACE},DFiveSec,399376,388,399764,,,,,,,,,,395362,0,0,,,,,,,,,,,,,,,PVT2011,104,6,60,{SPACE},FSevenSec,406791,301,407092,,,,,,,,,,,,,,,,400777,0,0,,,,,,,,,PVT2011,104,6,61,{SPACE},ATwoSec,409124,427,409551,408108,0,0,,,,,,,,,,,,,,,,,,,,,,,,PVT2011,104,6,62,{SPACE},CFourSec,413572,252,413824,,,,,,,410558,0,0,,,,,,,,,,,,,,,,,,PVT2011,104,6,63,{SPACE},ITenSec,423853,308,424161,,,,,,,,,,,,,,,,,,,,,,,,,414840,7353,422193PVT2011,104,6,64,{SPACE},BThreeSec,427186,243,427429,,,,425171,0,0,,,,,,,,,,,,,,,,,,,,,PVT2011,104,6,65,{SPACE},CFourSec,431451,328,431779,,,,,,,428436,0,0,,,,,,,,,,,,,,,,,,PVT2011,104,6,66,{SPACE},ESixSec,437799,282,438081,,,,,,,,,,,,,432785,0,0,,,,,,,,,,,,PVT2011,104,6,67,{SPACE},DFiveSec,443098,315,443413,,,,,,,,,,439084,0,0,,,,,,,,,,,,,,,PVT2011,104,6,68,{SPACE},ITenSec,453429,277,453706,,,,,,,,,,,,,,,,,,,,,,,,,444416,0,0PVT2011,104,6,69,{SPACE},HNineSec,462726,354,463080,,,,,,,,,,,,,,,,,,,,,,454713,0,0,,,PVT2011,104,6,70,{SPACE},ESixSec,469108,399,469507,,,,,,,,,,,,,464094,0,0,,,,,,,,,,,,PVT2011,104,6,71,{SPACE},BThreeSec,472541,398,472939,,,,470526,0,0,,,,,,,,,,,,,,,,,,,,,PVT2011,104,6,72,{SPACE},GEightSec,480955,318,481273,,,,,,,,,,,,,,,,,,,473942,0,0,,,,,,PVT2011,104,6,73,{SPACE},ATwoSec,483305,1023,484328,482289,0,0,,,,,,,,,,,,,,,,,,,,,,,,PVT2011,104,6,74,{SPACE},DFiveSec,489353,441,489794,,,,,,,,,,485339,0,0,,,,,,,,,,,,,,,PVT2011,104,6,75,{SPACE},HNineSec,498817,326,499143,,,,,,,,,,,,,,,,,,,,,,490804,0,0,,,PVT2011,104,6,76,{SPACE},GEightSec,507165,365,507530,,,,,,,,,,,,,,,,,,,500151,0,0,,,,,,PVT2011,104,6,77,{SPACE},ATwoSec,509548,540,510088,508533,0,0,,,,,,,,,,,,,,,,,,,,,,,,PVT2011,104,6,78,{SPACE},ITenSec,520112,451,520563,,,,,,,,,,,,,,,,,,,,,,,,,511099,0,0PVT2011,104,6,79,{SPACE},FSevenSec,527593,376,527969,,,,,,,,,,,,,,,,521579,0,0,,,,,,,,,PVT2011,104,6,80,{SPACE},DFiveSec,532992,449,533441,,,,,,,,,,528977,0,0,,,,,,,,,,,,,,,PVT2011,104,6,81,{SPACE},CFourSec,537474,310,537784,,,,,,,534459,0,0,,,,,,,,,,,,,,,,,,PVT2011,104,6,82,{SPACE},GEightSec,545805,384,546189,,,,,,,,,,,,,,,,,,,538792,0,0,,,,,,PVT2011,104,6,83,{SPACE},ITenSec,556219,281,556500,,,,,,,,,,,,,,,,,,,,,,,,,547206,0,0PVT2011,104,6,84,{SPACE},FSevenSec,563517,315,563832,,,,,,,,,,,,,,,,557503,0,0,,,,,,,,,PVT2011,104,6,85,{SPACE},HNineSec,572848,401,573249,,,,,,,,,,,,,,,,,,,,,,564835,0,0,,,PVT2011,104,6,86,{SPACE},CFourSec,577280,280,577560,,,,,,,574266,0,0,,,,,,,,,,,,,,,,,,PVT2011,104,6,87,{SPACE},ESixSec,583579,331,583910,,,,,,,,,,,,,578565,0,0,,,,,,,,,,,,PVT2011,104,6,88,{SPACE},ESixSec,589927,314,590241,,,,,,,,,,,,,584913,0,0,,,,,,,,,,,,PVT2011,104,6,89,{SPACE},BThreeSec,593260,339,593599,,,,591245,0,0,,,,,,,,,,,,,,,,,,,,,PVT2011,104,6,90,{SPACE},BThreeSec,596625,375,597000,,,,594611,0,0,,,,,,,,,,,,,,,,,,,,,PVT2011,104,6,91,{SPACE},HNineSec,606023,303,606326,,,,,,,,,,,,,,,,,,,,,,598010,0,0,,,PVT2011,104,6,92,{SPACE},ITenSec,616354,617,616971,,,,,,,,,,,,,,,,,,,,,,,,,607341,0,0PVT2011,104,6,93,{SPACE},ATwoSec,619003,413,619416,617988,0,0,,,,,,,,,,,,,,,,,,,,,,,,PVT2011,104,6,94,{SPACE},DFiveSec,624435,1455,625890,,,,,,,,,,620421,0,0,,,,,,,,,,,,,,,PVT2011,105,1,,,,,,,,,,,,,,,,,,,,,,,,,,,,,,,,,PVT2011,105,1,1,{SPACE},DFiveSec,250649,304,250953,,,,,,,,,,246633,0,0,,,,,,,,,,,,,,,PVT2011,105,1,2,{SPACE},FSevenSec,257980,272,258252,,,,,,,,,,,,,,,,251966,0,0,,,,,,,,,PVT2011,105,1,3,{SPACE},HNineSec,267278,288,267566,,,,,,,,,,,,,,,,,,,,,,259264,0,0,,,PVT2011,105,1,4,{SPACE},BThreeSec,270594,316,270910,,,,268579,0,0,,,,,,,,,,,,,,,,,,,,,PVT2011,105,1,5,{SPACE},BThreeSec,273943,254,274197,,,,271927,0,0,,,,,,,,,,,,,,,,,,,,,PVT2011,105,1,6,{SPACE},ITenSec,284224,258,284482,,,,,,,,,,,,,,,,,,,,,,,,,275210,0,0PVT2011,105,1,7,{SPACE},GEightSec,292505,250,292755,,,,,,,,,,,,,,,,,,,285491,0,0,,,,,,PVT2011,105,1,8,{SPACE},ESixSec,298787,282,299069,,,,,,,,,,,,,293772,0,0,,,,,,,,,,,,PVT2011,105,1,9,{SPACE},ATwoSec,301103,264,301367,300088,0,0,,,,,,,,,,,,,,,,,,,,,,,,PVT2011,105,1,10,{SPACE},ESixSec,307384,227,307611,,,,,,,,,,,,,302371,0,0,,,,,,,,,,,,PVT2011,105,1,11,{SPACE},FSevenSec,314633,216,314849,,,,,,,,,,,,,,,,308619,0,0,,,,,,,,,PVT2011,105,1,12,{SPACE},GEightSec,322881,265,323146,,,,,,,,,,,,,,,,,,,315867,0,0,,,,,,PVT2011,105,1,13,{SPACE},CFourSec,327163,226,327389,,,,,,,324149,0,0,,,,,,,,,,,,,,,,,,PVT2011,105,1,14,{SPACE},ATwoSec,329412,206,329618,328397,0,0,,,,,,,,,,,,,,,,,,,,,,,,PVT2011,105,1,15,{SPACE},HNineSec,338643,202,338845,,,,,,,,,,,,,,,,,,,,,,330630,0,0,,,PVT2011,105,1,16,{SPACE},DFiveSec,343875,248,344123,,,,,,,,,,339861,0,0,,,,,,,,,,,,,,,PVT2011,105,1,17,{SPACE},ITenSec,354139,230,354369,,,,,,,,,,,,,,,,,,,,,,,,,345126,0,0PVT2011,105,1,18,{SPACE},CFourSec,358388,252,358640,,,,,,,355374,0,0,,,,,,,,,,,,,,,,,,PVT2011,105,1,19,{SPACE},ESixSec,364670,229,364899,,,,,,,,,,,,,359656,0,0,,,,,,,,,,,,PVT2011,105,1,20,{SPACE},CFourSec,368919,229,369148,,,,,,,365904,0,0,,,,,,,,,,,,,,,,,,PVT2011,105,1,21,{SPACE},ATwoSec,371168,397,371565,370153,0,0,,,,,,,,,,,,,,,,,,,,,,,,PVT2011,105,1,22,{SPACE},DFiveSec,376584,242,376826,,,,,,,,,,372569,0,0,,,,,,,,,,,,,,,PVT2011,105,1,23,{SPACE},DFiveSec,381849,237,382086,,,,,,,,,,377835,0,0,,,,,,,,,,,,,,,PVT2011,105,1,24,{SPACE},HNineSec,391113,212,391325,,,,,,,,,,,,,,,,,,,,,,383100,0,0,,,PVT2011,105,1,25,{SPACE},BThreeSec,394346,216,394562,,,,392331,0,0,,,,,,,,,,,,,,,,,,,,,PVT2011,105,1,26,{SPACE},ESixSec,400594,214,400808,,,,,,,,,,,,,395580,0,0,,,,,,,,,,,,PVT2011,105,1,27,{SPACE},CFourSec,404826,230,405056,,,,,,,401812,0,0,,,,,,,,,,,,,,,,,,PVT2011,105,1,28,{SPACE},ITenSec,415074,240,415314,,,,,,,,,,,,,,,,,,,,,,,,,406061,0,0PVT2011,105,1,29,{SPACE},FSevenSec,422339,189,422528,,,,,,,,,,,,,,,,416325,0,0,,,,,,,,,PVT2011,105,1,30,{SPACE},GEightSec,430553,219,430772,,,,,,,,,,,,,,,,,,,423540,0,0,,,,,,PVT2011,105,1,31,{SPACE},GEightSec,438801,224,439025,,,,,,,,,,,,,,,,,,,431788,0,0,,,,,,PVT2011,105,1,32,{SPACE},ITenSec,449049,226,449275,,,,,,,,,,,,,,,,,,,,,,,,,440036,0,0PVT2011,105,1,33,{SPACE},ATwoSec,451298,274,451572,450283,0,0,,,,,,,,,,,,,,,,,,,,,,,,PVT2011,105,1,34,{SPACE},FSevenSec,458596,283,458879,,,,,,,,,,,,,,,,452582,0,0,,,,,,,,,PVT2011,105,1,35,{SPACE},BThreeSec,461912,256,462168,,,,459896,0,0,,,,,,,,,,,,,,,,,,,,,PVT2011,105,1,36,{SPACE},HNineSec,471193,239,471432,,,,,,,,,,,,,,,,,,,,,,463180,0,0,,,PVT2011,105,1,37,{SPACE},ESixSec,477458,227,477685,,,,,,,,,,,,,472444,0,0,,,,,,,,,,,,PVT2011,105,1,38,{SPACE},ITenSec,487706,239,487945,,,,,,,,,,,,,,,,,,,,,,,,,478692,0,0PVT2011,105,1,39,{SPACE},BThreeSec,490971,263,491234,,,,488957,0,0,,,,,,,,,,,,,,,,,,,,,PVT2011,105,1,40,{SPACE},GEightSec,499253,264,499517,,,,,,,,,,,,,,,,,,,492239,0,0,,,,,,PVT2011,105,1,41,{SPACE},CFourSec,503535,258,503793,,,,,,,500520,0,0,,,,,,,,,,,,,,,,,,PVT2011,105,1,42,{SPACE},FSevenSec,510816,277,511093,,,,,,,,,,,,,,,,504803,0,0,,,,,,,,,PVT2011,105,1,43,{SPACE},HNineSec,520114,264,520378,,,,,,,,,,,,,,,,,,,,,,512101,0,0,,,PVT2011,105,1,44,{SPACE},FSevenSec,527396,263,527659,,,,,,,,,,,,,,,,521382,0,0,,,,,,,,,PVT2011,105,1,45,{SPACE},ATwoSec,529678,327,530005,528663,0,0,,,,,,,,,,,,,,,,,,,,,,,,PVT2011,105,1,46,{SPACE},ITenSec,540026,347,540373,,,,,,,,,,,,,,,,,,,,,,,,,531013,0,0PVT2011,105,1,47,{SPACE},GEightSec,548390,298,548688,,,,,,,,,,,,,,,,,,,541377,0,0,,,,,,PVT2011,105,1,48,{SPACE},ESixSec,554705,254,554959,,,,,,,,,,,,,549691,0,0,,,,,,,,,,,,PVT2011,105,1,49,{SPACE},DFiveSec,559987,240,560227,,,,,,,,,,555973,0,0,,,,,,,,,,,,,,,PVT2011,105,1,50,{SPACE},CFourSec,564253,248,564501,,,,,,,561238,0,0,,,,,,,,,,,,,,,,,,PVT2011,105,1,51,{SPACE},DFiveSec,569518,260,569778,,,,,,,,,,565504,0,0,,,,,,,,,,,,,,,PVT2011,105,1,52,{SPACE},BThreeSec,572801,295,573096,,,,570786,0,0,,,,,,,,,,,,,,,,,,,,,PVT2011,105,1,53,{SPACE},HNineSec,582115,242,582357,,,,,,,,,,,,,,,,,,,,,,574102,0,0,,,PVT2011,105,1,54,{SPACE},ATwoSec,584381,223,584604,583366,0,0,,,,,,,,,,,,,,,,,,,,,,,,PVT2011,105,1,55,{SPACE},CFourSec,588630,247,588877,,,,,,,585615,0,0,,,,,,,,,,,,,,,,,,PVT2011,105,1,56,{SPACE},BThreeSec,591896,332,592228,,,,589881,0,0,,,,,,,,,,,,,,,,,,,,,PVT2011,105,1,57,{SPACE},GEightSec,600261,271,600532,,,,,,,,,,,,,,,,,,,593247,0,0,,,,,,PVT2011,105,1,58,{SPACE},DFiveSec,605559,227,605786,,,,,,,,,,601545,0,0,,,,,,,,,,,,,,,PVT2011,105,1,59,{SPACE},HNineSec,614807,200,615007,,,,,,,,,,,,,,,,,,,,,,606793,0,0,,,PVT2011,105,1,60,{SPACE},CFourSec,619039,333,619372,,,,,,,616024,0,0,,,,,,,,,,,,,,,,,,PVT2011,105,1,61,{SPACE},ATwoSec,621405,351,621756,620390,0,0,,,,,,,,,,,,,,,,,,,,,,,,PVT2011,105,1,62,{SPACE},FSevenSec,628787,254,629041,,,,,,,,,,,,,,,,622773,0,0,,,,,,,,,PVT2011,105,1,63,{SPACE},ESixSec,635068,275,635343,,,,,,,,,,,,,630054,0,0,,,,,,,,,,,,PVT2011,105,1,64,{SPACE},ATwoSec,637368,362,637730,636353,0,0,,,,,,,,,,,,,,,,,,,,,,,,PVT2011,105,1,65,{SPACE},ESixSec,643750,211,643961,,,,,,,,,,,,,638735,0,0,,,,,,,,,,,,PVT2011,105,1,66,{SPACE},GEightSec,651981,274,652255,,,,,,,,,,,,,,,,,,,644967,0,0,,,,,,PVT2011,105,1,67,{SPACE},ITenSec,662278,207,662485,,,,,,,,,,,,,,,,,,,,,,,,,653265,0,0PVT2011,105,1,68,{SPACE},HNineSec,671509,290,671799,,,,,,,,,,,,,,,,,,,,,,663496,0,0,,,PVT2011,105,1,69,{SPACE},ITenSec,681823,292,682115,,,,,,,,,,,,,,,,,,,,,,,,,672810,0,0PVT2011,105,1,70,{SPACE},DFiveSec,687139,266,687405,,,,,,,,,,683124,0,0,,,,,,,,,,,,,,,PVT2011,105,1,71,{SPACE},FSevenSec,694437,256,694693,,,,,,,,,,,,,,,,688423,0,0,,,,,,,,,PVT2011,105,1,72,{SPACE},BThreeSec,697719,318,698037,,,,695704,0,0,,,,,,,,,,,,,,,,,,,,,PVT2011,105,1,73,{SPACE},ATwoSec,700069,428,700497,699053,0,0,,,,,,,,,,,,,,,,,,,,,,,,PVT2011,105,1,74,{SPACE},HNineSec,709516,250,709766,,,,,,,,,,,,,,,,,,,,,,701503,0,0,,,PVT2011,105,1,75,{SPACE},ITenSec,719797,270,720067,,,,,,,,,,,,,,,,,,,,,,,,,710784,0,0PVT2011,105,1,76,{SPACE},HNineSec,729095,237,729332,,,,,,,,,,,,,,,,,,,,,,721081,0,0,,,PVT2011,105,1,77,{SPACE},FSevenSec,736359,234,736593,,,,,,,,,,,,,,,,730346,0,0,,,,,,,,,PVT2011,105,1,78,{SPACE},ESixSec,742625,244,742869,,,,,,,,,,,,,737610,0,0,,,,,,,,,,,,PVT2011,105,1,79,{SPACE},DFiveSec,747890,317,748207,,,,,,,,,,743876,0,0,,,,,,,,,,,,,,,PVT2011,105,1,80,{SPACE},CFourSec,752239,352,752591,,,,,,,749224,0,0,,,,,,,,,,,,,,,,,,PVT2011,105,1,81,{SPACE},GEightSec,760620,245,760865,,,,,,,,,,,,,,,,,,,753606,0,0,,,,,,PVT2011,105,1,82,{SPACE},ATwoSec,762886,255,763141,761871,0,0,,,,,,,,,,,,,,,,,,,,,,,,PVT2011,105,1,83,{SPACE},ITenSec,773167,229,773396,,,,,,,,,,,,,,,,,,,,,,,,,764154,0,0PVT2011,105,1,84,{SPACE},ESixSec,779415,405,779820,,,,,,,,,,,,,774401,0,0,,,,,,,,,,,,PVT2011,105,1,85,{SPACE},BThreeSec,782848,232,783080,,,,780833,0,0,,,,,,,,,,,,,,,,,,,,,PVT2011,105,1,86,{SPACE},CFourSec,787113,245,787358,,,,,,,784099,0,0,,,,,,,,,,,,,,,,,,PVT2011,105,1,87,{SPACE},BThreeSec,790379,334,790713,,,,788364,0,0,,,,,,,,,,,,,,,,,,,,,PVT2011,105,1,88,{SPACE},DFiveSec,795745,225,795970,,,,,,,,,,791730,0,0,,,,,,,,,,,,,,,PVT2011,105,1,89,{SPACE},FSevenSec,802993,311,803304,,,,,,,,,,,,,,,,796979,0,0,,,,,,,,,PVT2011,105,1,90,{SPACE},GEightSec,811324,256,811580,,,,,,,,,,,,,,,,,,,804310,0,0,,,,,,PVT2011,105,1,91,{SPACE},CFourSec,815606,290,815896,,,,,,,812592,0,0,,,,,,,,,,,,,,,,,,PVT2011,105,1,92,{SPACE},ESixSec,821921,208,822129,,,,,,,,,,,,,816907,0,0,,,,,,,,,,,,PVT2011,105,1,93,{SPACE},FSevenSec,829153,308,829461,,,,,,,,,,,,,,,,823139,0,0,,,,,,,,,PVT2011,105,1,94,{SPACE},FSevenSec,836484,310,836794,,,,,,,,,,,,,,,,830470,0,0,,,,,,,,,PVT2011,105,1,95,{SPACE},BThreeSec,839817,283,840100,,,,837802,0,0,,,,,,,,,,,,,,,,,,,,,PVT2011,105,1,96,{SPACE},ATwoSec,842133,346,842479,841118,0,0,,,,,,,,,,,,,,,,,,,,,,,,PVT2011,105,1,97,{SPACE},ESixSec,848498,253,848751,,,,,,,,,,,,,843484,0,0,,,,,,,,,,,,PVT2011,105,2,,,,,,,,,,,,,,,,,,,,,,,,,,,,,,,,,PVT2011,105,2,1,{SPACE},CFourSec,21118,362,21480,,,,,,,18102,0,0,,,,,,,,,,,,,,,,,,PVT2011,105,2,2,{SPACE},ATwoSec,23500,249,23749,22485,0,0,,,,,,,,,,,,,,,,,,,,,,,,PVT2011,105,2,3,{SPACE},DFiveSec,28766,469,29235,,,,,,,,,,24752,0,0,,,,,,,,,,,,,,,PVT2011,105,2,4,{SPACE},ESixSec,35264,284,35548,,,,,,,,,,,,,30250,0,0,,,,,,,,,,,,PVT2011,105,2,5,{SPACE},ITenSec,45578,231,45809,,,,,,,,,,,,,,,,,,,,,,,,,36565,0,0PVT2011,105,2,6,{SPACE},DFiveSec,50827,361,51188,,,,,,,,,,46812,0,0,,,,,,,,,,,,,,,PVT2011,105,2,7,{SPACE},BThreeSec,54209,249,54458,,,,52194,0,0,,,,,,,,,,,,,,,,,,,,,PVT2011,105,2,8,{SPACE},BThreeSec,57475,266,57741,,,,55461,0,0,,,,,,,,,,,,,,,,,,,,,PVT2011,105,2,9,{SPACE},GEightSec,65773,244,66017,,,,,,,,,,,,,,,,,,,58759,0,0,,,,,,PVT2011,105,2,10,{SPACE},CFourSec,70039,400,70439,,,,,,,67024,0,0,,,,,,,,,,,,,,,,,,PVT2011,105,2,11,{SPACE},ITenSec,80469,220,80689,,,,,,,,,,,,,,,,,,,,,,,,,71456,0,0PVT2011,105,2,12,{SPACE},ATwoSec,82719,449,83168,81704,0,0,,,,,,,,,,,,,,,,,,,,,,,,PVT2011,105,2,13,{SPACE},GEightSec,91200,232,91432,,,,,,,,,,,,,,,,,,,84185,0,0,,,,,,PVT2011,105,2,14,{SPACE},FSevenSec,98448,248,98696,,,,,,,,,,,,,,,,92435,0,0,,,,,,,,,PVT2011,105,2,15,{SPACE},HNineSec,107712,275,107987,,,,,,,,,,,,,,,,,,,,,,99699,0,0,,,PVT2011,105,2,16,{SPACE},FSevenSec,115011,204,115215,,,,,,,,,,,,,,,,108997,0,0,,,,,,,,,PVT2011,105,2,17,{SPACE},ESixSec,121242,297,121539,,,,,,,,,,,,,116228,0,0,,,,,,,,,,,,PVT2011,105,2,18,{SPACE},HNineSec,130557,259,130816,,,,,,,,,,,,,,,,,,,,,,122543,0,0,,,PVT2011,105,2,19,{SPACE},FSevenSec,137838,260,138098,,,,,,,,,,,,,,,,131824,0,0,,,,,,,,,PVT2011,105,2,20,{SPACE},HNineSec,147119,253,147372,,,,,,,,,,,,,,,,,,,,,,139106,0,0,,,PVT2011,105,2,21,{SPACE},ITenSec,157400,250,157650,,,,,,,,,,,,,,,,,,,,,,,,,148387,0,0PVT2011,105,2,22,{SPACE},BThreeSec,160682,281,160963,,,,158666,0,0,,,,,,,,,,,,,,,,,,,,,PVT2011,105,2,23,{SPACE},ESixSec,166981,259,167240,,,,,,,,,,,,,161967,0,0,,,,,,,,,,,,PVT2011,105,2,24,{SPACE},DFiveSec,172263,259,172522,,,,,,,,,,168248,0,0,,,,,,,,,,,,,,,PVT2011,105,2,25,{SPACE},FSevenSec,179544,256,179800,,,,,,,,,,,,,,,,173530,0,0,,,,,,,,,PVT2011,105,2,26,{SPACE},GEightSec,187826,256,188082,,,,,,,,,,,,,,,,,,,180812,0,0,,,,,,PVT2011,105,2,27,{SPACE},CFourSec,192108,293,192401,,,,,,,189093,0,0,,,,,,,,,,,,,,,,,,PVT2011,105,2,28,{SPACE},ITenSec,202422,259,202681,,,,,,,,,,,,,,,,,,,,,,,,,193409,0,0PVT2011,105,2,29,{SPACE},ESixSec,208704,316,209020,,,,,,,,,,,,,203689,0,0,,,,,,,,,,,,PVT2011,105,2,30,{SPACE},ATwoSec,211053,283,211336,210038,0,0,,,,,,,,,,,,,,,,,,,,,,,,PVT2011,105,2,31,{SPACE},BThreeSec,214369,236,214605,,,,212354,0,0,,,,,,,,,,,,,,,,,,,,,PVT2011,105,2,32,{SPACE},ATwoSec,216635,303,216938,215620,0,0,,,,,,,,,,,,,,,,,,,,,,,,PVT2011,105,2,33,{SPACE},DFiveSec,221967,219,222186,,,,,,,,,,217953,0,0,,,,,,,,,,,,,,,PVT2011,105,2,34,{SPACE},CFourSec,226216,242,226458,,,,,,,223201,0,0,,,,,,,,,,,,,,,,,,PVT2011,105,2,35,{SPACE},GEightSec,234480,269,234749,,,,,,,,,,,,,,,,,,,227467,0,0,,,,,,PVT2011,105,2,36,{SPACE},HNineSec,243778,303,244081,,,,,,,,,,,,,,,,,,,,,,235765,0,0,,,PVT2011,105,2,37,{SPACE},CFourSec,248110,321,248431,,,,,,,245096,0,0,,,,,,,,,,,,,,,,,,PVT2011,105,2,38,{SPACE},CFourSec,252459,247,252706,,,,,,,249445,0,0,,,,,,,,,,,,,,,,,,PVT2011,105,2,39,{SPACE},FSevenSec,259724,237,259961,,,,,,,,,,,,,,,,253710,0,0,,,,,,,,,PVT2011,105,2,40,{SPACE},FSevenSec,266989,276,267265,,,,,,,,,,,,,,,,260975,0,0,,,,,,,,,PVT2011,105,2,41,{SPACE},DFiveSec,272288,281,272569,,,,,,,,,,268273,0,0,,,,,,,,,,,,,,,PVT2011,105,2,42,{SPACE},GEightSec,280585,359,280944,,,,,,,,,,,,,,,,,,,273572,0,0,,,,,,PVT2011,105,2,43,{SPACE},ITenSec,290966,302,291268,,,,,,,,,,,,,,,,,,,,,,,,,281953,0,0PVT2011,105,2,44,{SPACE},BThreeSec,294299,528,294827,,,,292284,0,0,,,,,,,,,,,,,,,,,,,,,PVT2011,105,2,45,{SPACE},ESixSec,300847,290,301137,,,,,,,,,,,,,295833,0,0,,,,,,,,,,,,PVT2011,105,2,46,{SPACE},ATwoSec,303163,310,303473,302148,0,0,,,,,,,,,,,,,,,,,,,,,,,,PVT2011,105,2,47,{SPACE},ATwoSec,305496,279,305775,304481,0,0,,,,,,,,,,,,,,,,,,,,,,,,PVT2011,105,2,48,{SPACE},HNineSec,314794,311,315105,,,,,,,,,,,,,,,,,,,,,,306780,0,0,,,PVT2011,105,2,49,{SPACE},ESixSec,321125,279,321404,,,,,,,,,,,,,316111,0,0,,,,,,,,,,,,PVT2011,105,2,50,{SPACE},HNineSec,330423,214,330637,,,,,,,,,,,,,,,,,,,,,,322410,0,0,,,PVT2011,105,2,51,{SPACE},GEightSec,338654,231,338885,,,,,,,,,,,,,,,,,,,331641,0,0,,,,,,PVT2011,105,2,52,{SPACE},ITenSec,348902,219,349121,,,,,,,,,,,,,,,,,,,,,,,,,339888,0,0PVT2011,105,2,53,{SPACE},DFiveSec,354150,240,354390,,,,,,,,,,350136,0,0,,,,,,,,,,,,,,,PVT2011,105,2,54,{SPACE},BThreeSec,357416,282,357698,,,,355401,0,0,,,,,,,,,,,,,,,,,,,,,PVT2011,105,2,55,{SPACE},GEightSec,365714,253,365967,,,,,,,,,,,,,,,,,,,358701,0,0,,,,,,PVT2011,105,2,56,{SPACE},CFourSec,369996,245,370241,,,,,,,366982,0,0,,,,,,,,,,,,,,,,,,PVT2011,105,2,57,{SPACE},HNineSec,379261,351,379612,,,,,,,,,,,,,,,,,,,,,,371247,0,0,,,PVT2011,105,2,58,{SPACE},ITenSec,389641,312,389953,,,,,,,,,,,,,,,,,,,,,,,,,380628,0,0PVT2011,105,2,59,{SPACE},FSevenSec,396973,307,397280,,,,,,,,,,,,,,,,390959,0,0,,,,,,,,,PVT2011,105,2,60,{SPACE},GEightSec,405304,260,405564,,,,,,,,,,,,,,,,,,,398290,0,0,,,,,,PVT2011,105,2,61,{SPACE},HNineSec,414585,264,414849,,,,,,,,,,,,,,,,,,,,,,406572,0,0,,,PVT2011,105,2,62,{SPACE},BThreeSec,417868,313,418181,,,,415853,0,0,,,,,,,,,,,,,,,,,,,,,PVT2011,105,2,63,{SPACE},ESixSec,424199,364,424563,,,,,,,,,,,,,419185,0,0,,,,,,,,,,,,PVT2011,105,2,64,{SPACE},ITenSec,434580,284,434864,,,,,,,,,,,,,,,,,,,,,,,,,425567,0,0PVT2011,105,2,65,{SPACE},BThreeSec,437896,337,438233,,,,435881,0,0,,,,,,,,,,,,,,,,,,,,,PVT2011,105,2,66,{SPACE},DFiveSec,443261,248,443509,,,,,,,,,,439247,0,0,,,,,,,,,,,,,,,PVT2011,105,2,67,{SPACE},ATwoSec,445527,342,445869,444512,0,0,,,,,,,,,,,,,,,,,,,,,,,,PVT2011,105,2,68,{SPACE},CFourSec,449893,272,450165,,,,,,,446878,0,0,,,,,,,,,,,,,,,,,,PVT2011,105,2,69,{SPACE},FSevenSec,457191,315,457506,,,,,,,,,,,,,,,,451177,0,0,,,,,,,,,PVT2011,105,2,70,{SPACE},DFiveSec,462523,251,462774,,,,,,,,,,458509,0,0,,,,,,,,,,,,,,,PVT2011,105,2,71,{SPACE},ESixSec,468805,328,469133,,,,,,,,,,,,,463791,0,0,,,,,,,,,,,,PVT2011,105,2,72,{SPACE},ATwoSec,471154,337,471491,470139,0,0,,,,,,,,,,,,,,,,,,,,,,,,PVT2011,105,2,73,{SPACE},ATwoSec,473520,297,473817,472505,0,0,,,,,,,,,,,,,,,,,,,,,,,,PVT2011,105,2,74,{SPACE},CFourSec,477836,288,478124,,,,,,,474821,0,0,,,,,,,,,,,,,,,,,,PVT2011,105,2,75,{SPACE},FSevenSec,485151,414,485565,,,,,,,,,,,,,,,,479137,0,0,,,,,,,,,PVT2011,105,2,76,{SPACE},HNineSec,494581,241,494822,,,,,,,,,,,,,,,,,,,,,,486568,0,0,,,PVT2011,105,2,77,{SPACE},CFourSec,498847,738,499585,,,,,,,495832,0,0,,,,,,,,,,,,,,,,,,PVT2011,105,2,78,{SPACE},BThreeSec,502613,292,502905,,,,500598,0,0,,,,,,,,,,,,,,,,,,,,,PVT2011,105,2,79,{SPACE},DFiveSec,507928,287,508215,,,,,,,,,,503914,0,0,,,,,,,,,,,,,,,PVT2011,105,2,80,{SPACE},HNineSec,517242,375,517617,,,,,,,,,,,,,,,,,,,,,,509229,0,0,,,PVT2011,105,2,81,{SPACE},FSevenSec,524641,283,524924,,,,,,,,,,,,,,,,518627,0,0,,,,,,,,,PVT2011,105,2,82,{SPACE},ITenSec,534955,285,535240,,,,,,,,,,,,,,,,,,,,,,,,,525941,0,0PVT2011,105,2,83,{SPACE},GEightSec,543269,267,543536,,,,,,,,,,,,,,,,,,,536256,0,0,,,,,,PVT2011,105,2,84,{SPACE},GEightSec,551567,296,551863,,,,,,,,,,,,,,,,,,,544553,0,0,,,,,,PVT2011,105,2,85,{SPACE},ESixSec,557882,269,558151,,,,,,,,,,,,,552868,0,0,,,,,,,,,,,,PVT2011,105,2,86,{SPACE},ITenSec,568180,244,568424,,,,,,,,,,,,,,,,,,,,,,,,,559166,0,0PVT2011,105,2,87,{SPACE},ATwoSec,570446,347,570793,569431,0,0,,,,,,,,,,,,,,,,,,,,,,,,PVT2011,105,2,88,{SPACE},DFiveSec,575811,303,576114,,,,,,,,,,571797,0,0,,,,,,,,,,,,,,,PVT2011,105,2,89,{SPACE},BThreeSec,579143,260,579403,,,,577129,0,0,,,,,,,,,,,,,,,,,,,,,PVT2011,105,2,90,{SPACE},ESixSec,585425,368,585793,,,,,,,,,,,,,580411,0,0,,,,,,,,,,,,PVT2011,105,2,91,{SPACE},ESixSec,591824,534,592358,,,,,,,,,,,,,586809,0,0,,,,,,,,,,,,PVT2011,105,2,92,{SPACE},ITenSec,602388,238,602626,,,,,,,,,,,,,,,,,,,,,,,,,593374,0,0PVT2011,105,2,93,{SPACE},ESixSec,608653,318,608971,,,,,,,,,,,,,603639,0,0,,,,,,,,,,,,PVT2011,105,2,94,{SPACE},HNineSec,618000,268,618268,,,,,,,,,,,,,,,,,,,,,,609987,0,0,,,PVT2011,105,3,,,,,,,,,,,,,,,,,,,,,,,,,,,,,,,,,PVT2011,105,3,1,{SPACE},BThreeSec,23539,230,23769,,,,21523,0,0,,,,,,,,,,,,,,,,,,,,,PVT2011,105,3,2,{SPACE},ITenSec,33803,191,33994,,,,,,,,,,,,,,,,,,,,,,,,,24789,0,0PVT2011,105,3,3,{SPACE},ITenSec,44017,222,44239,,,,,,,,,,,,,,,,,,,,,,,,,35004,0,0PVT2011,105,3,4,{SPACE},DFiveSec,49266,242,49508,,,,,,,,,,45251,0,0,,,,,,,,,,,,,,,PVT2011,105,3,5,{SPACE},DFiveSec,54531,221,54752,,,,,,,,,,50517,0,0,,,,,,,,,,,,,,,PVT2011,105,3,6,{SPACE},FSevenSec,61779,224,62003,,,,,,,,,,,,,,,,55765,0,0,,,,,,,,,PVT2011,105,3,7,{SPACE},ATwoSec,64029,238,64267,63014,0,0,,,,,,,,,,,,,,,,,,,,,,,,PVT2011,105,3,8,{SPACE},FSevenSec,71294,233,71527,,,,,,,,,,,,,,,,65280,0,0,,,,,,,,,PVT2011,105,3,9,{SPACE},ESixSec,77559,205,77764,,,,,,,,,,,,,72545,0,0,,,,,,,,,,,,PVT2011,105,3,10,{SPACE},BThreeSec,80791,296,81087,,,,78776,0,0,,,,,,,,,,,,,,,,,,,,,PVT2011,105,3,11,{SPACE},ATwoSec,83107,208,83315,82092,0,0,,,,,,,,,,,,,,,,,,,,,,,,PVT2011,105,3,12,{SPACE},CFourSec,87340,231,87571,,,,,,,84325,0,0,,,,,,,,,,,,,,,,,,PVT2011,105,3,13,{SPACE},HNineSec,96587,261,96848,,,,,,,,,,,,,,,,,,,,,,88574,0,0,,,PVT2011,105,3,14,{SPACE},HNineSec,105868,219,106087,,,,,,,,,,,,,,,,,,,,,,97855,0,0,,,PVT2011,105,3,15,{SPACE},GEightSec,114116,242,114358,,,,,,,,,,,,,,,,,,,107102,0,0,,,,,,PVT2011,105,3,16,{SPACE},GEightSec,122381,357,122738,,,,,,,,,,,,,,,,,,,115367,0,0,,,,,,PVT2011,105,3,17,{SPACE},CFourSec,126763,269,127032,,,,,,,123748,0,0,,,,,,,,,,,,,,,,,,PVT2011,105,3,18,{SPACE},ESixSec,133061,212,133273,,,,,,,,,,,,,128047,0,0,,,,,,,,,,,,PVT2011,105,3,19,{SPACE},DFiveSec,138293,261,138554,,,,,,,,,,134279,0,0,,,,,,,,,,,,,,,PVT2011,105,3,20,{SPACE},HNineSec,147574,233,147807,,,,,,,,,,,,,,,,,,,,,,139561,0,0,,,PVT2011,105,3,21,{SPACE},ATwoSec,149840,253,150093,148825,0,0,,,,,,,,,,,,,,,,,,,,,,,,PVT2011,105,3,22,{SPACE},ESixSec,156122,219,156341,,,,,,,,,,,,,151108,0,0,,,,,,,,,,,,PVT2011,105,3,23,{SPACE},HNineSec,165370,216,165586,,,,,,,,,,,,,,,,,,,,,,157356,0,0,,,PVT2011,105,3,24,{SPACE},ESixSec,171618,208,171826,,,,,,,,,,,,,166604,0,0,,,,,,,,,,,,PVT2011,105,3,25,{SPACE},DFiveSec,176850,189,177039,,,,,,,,,,172836,0,0,,,,,,,,,,,,,,,PVT2011,105,3,26,{SPACE},CFourSec,181066,235,181301,,,,,,,178051,0,0,,,,,,,,,,,,,,,,,,PVT2011,105,3,27,{SPACE},CFourSec,185332,211,185543,,,,,,,182317,0,0,,,,,,,,,,,,,,,,,,PVT2011,105,3,28,{SPACE},FSevenSec,192563,206,192769,,,,,,,,,,,,,,,,186549,0,0,,,,,,,,,PVT2011,105,3,29,{SPACE},BThreeSec,195796,238,196034,,,,193781,0,0,,,,,,,,,,,,,,,,,,,,,PVT2011,105,3,30,{SPACE},GEightSec,204060,261,204321,,,,,,,,,,,,,,,,,,,197046,0,0,,,,,,PVT2011,105,3,31,{SPACE},ITenSec,214341,207,214548,,,,,,,,,,,,,,,,,,,,,,,,,205328,0,0PVT2011,105,3,32,{SPACE},GEightSec,222572,240,222812,,,,,,,,,,,,,,,,,,,215558,0,0,,,,,,PVT2011,105,3,33,{SPACE},BThreeSec,225838,268,226106,,,,223823,0,0,,,,,,,,,,,,,,,,,,,,,PVT2011,105,3,34,{SPACE},ATwoSec,228137,232,228369,227122,0,0,,,,,,,,,,,,,,,,,,,,,,,,PVT2011,105,3,35,{SPACE},FSevenSec,235386,263,235649,,,,,,,,,,,,,,,,229372,0,0,,,,,,,,,PVT2011,105,3,36,{SPACE},ITenSec,245666,246,245912,,,,,,,,,,,,,,,,,,,,,,,,,236653,0,0PVT2011,105,3,37,{SPACE},ATwoSec,247932,239,248171,246917,0,0,,,,,,,,,,,,,,,,,,,,,,,,PVT2011,105,3,38,{SPACE},ITenSec,258196,267,258463,,,,,,,,,,,,,,,,,,,,,,,,,249183,0,0PVT2011,105,3,39,{SPACE},DFiveSec,263495,256,263751,,,,,,,,,,259481,0,0,,,,,,,,,,,,,,,PVT2011,105,3,40,{SPACE},CFourSec,267777,305,268082,,,,,,,264763,0,0,,,,,,,,,,,,,,,,,,PVT2011,105,3,41,{SPACE},ESixSec,274109,207,274316,,,,,,,,,,,,,269095,0,0,,,,,,,,,,,,PVT2011,105,3,42,{SPACE},BThreeSec,277342,235,277577,,,,275327,0,0,,,,,,,,,,,,,,,,,,,,,PVT2011,105,3,43,{SPACE},ESixSec,283607,219,283826,,,,,,,,,,,,,278593,0,0,,,,,,,,,,,,PVT2011,105,3,44,{SPACE},BThreeSec,286856,240,287096,,,,284841,0,0,,,,,,,,,,,,,,,,,,,,,PVT2011,105,3,45,{SPACE},GEightSec,295120,211,295331,,,,,,,,,,,,,,,,,,,288107,0,0,,,,,,PVT2011,105,3,46,{SPACE},ATwoSec,297353,488,297841,296338,0,0,,,,,,,,,,,,,,,,,,,,,,,,PVT2011,105,3,47,{SPACE},GEightSec,305868,230,306098,,,,,,,,,,,,,,,,,,,298854,0,0,,,,,,PVT2011,105,3,48,{SPACE},CFourSec,310117,258,310375,,,,,,,307102,0,0,,,,,,,,,,,,,,,,,,PVT2011,105,3,49,{SPACE},FSevenSec,317398,246,317644,,,,,,,,,,,,,,,,311384,0,0,,,,,,,,,PVT2011,105,3,50,{SPACE},HNineSec,326663,218,326881,,,,,,,,,,,,,,,,,,,,,,318649,0,0,,,PVT2011,105,3,51,{SPACE},HNineSec,335910,192,336102,,,,,,,,,,,,,,,,,,,,,,327897,0,0,,,PVT2011,105,3,52,{SPACE},ITenSec,346124,202,346326,,,,,,,,,,,,,,,,,,,,,,,,,337111,0,0PVT2011,105,3,53,{SPACE},FSevenSec,353356,174,353530,,,,,,,,,,,,,,,,347342,0,0,,,,,,,,,PVT2011,105,3,54,{SPACE},DFiveSec,358554,253,358807,,,,,,,,,,354540,0,0,,,,,,,,,,,,,,,PVT2011,105,3,55,{SPACE},FSevenSec,365836,197,366033,,,,,,,,,,,,,,,,359822,0,0,,,,,,,,,PVT2011,105,3,56,{SPACE},CFourSec,370052,210,370262,,,,,,,367037,0,0,,,,,,,,,,,,,,,,,,PVT2011,105,3,57,{SPACE},FSevenSec,377283,196,377479,,,,,,,,,,,,,,,,371269,0,0,,,,,,,,,PVT2011,105,3,58,{SPACE},DFiveSec,382498,229,382727,,,,,,,,,,378484,0,0,,,,,,,,,,,,,,,PVT2011,105,3,59,{SPACE},BThreeSec,385748,241,385989,,,,383733,0,0,,,,,,,,,,,,,,,,,,,,,PVT2011,105,3,60,{SPACE},HNineSec,395012,187,395199,,,,,,,,,,,,,,,,,,,,,,386999,0,0,,,PVT2011,105,3,61,{SPACE},ATwoSec,397228,397,397625,396213,0,0,,,,,,,,,,,,,,,,,,,,,,,,PVT2011,105,3,62,{SPACE},GEightSec,405643,228,405871,,,,,,,,,,,,,,,,,,,398629,0,0,,,,,,PVT2011,105,3,63,{SPACE},DFiveSec,410891,238,411129,,,,,,,,,,406877,0,0,,,,,,,,,,,,,,,PVT2011,105,3,64,{SPACE},ITenSec,421155,189,421344,,,,,,,,,,,,,,,,,,,,,,,,,412142,0,0PVT2011,105,3,65,{SPACE},ITenSec,431369,183,431552,,,,,,,,,,,,,,,,,,,,,,,,,422356,0,0PVT2011,105,3,66,{SPACE},ATwoSec,433586,279,433865,432570,0,0,,,,,,,,,,,,,,,,,,,,,,,,PVT2011,105,3,67,{SPACE},HNineSec,442883,275,443158,,,,,,,,,,,,,,,,,,,,,,434870,0,0,,,PVT2011,105,3,68,{SPACE},CFourSec,447182,262,447444,,,,,,,444167,0,0,,,,,,,,,,,,,,,,,,PVT2011,105,3,69,{SPACE},GEightSec,455463,249,455712,,,,,,,,,,,,,,,,,,,448450,0,0,,,,,,PVT2011,105,3,70,{SPACE},BThreeSec,458729,358,459087,,,,456715,0,0,,,,,,,,,,,,,,,,,,,,,PVT2011,105,3,71,{SPACE},ESixSec,465111,321,465432,,,,,,,,,,,,,460097,0,0,,,,,,,,,,,,PVT2011,105,3,72,{SPACE},ESixSec,471459,191,471650,,,,,,,,,,,,,466445,0,0,,,,,,,,,,,,PVT2011,105,3,73,{SPACE},DFiveSec,476675,238,476913,,,,,,,,,,472660,0,0,,,,,,,,,,,,,,,PVT2011,105,3,74,{SPACE},BThreeSec,479940,262,480202,,,,477926,0,0,,,,,,,,,,,,,,,,,,,,,PVT2011,105,3,75,{SPACE},ESixSec,486222,316,486538,,,,,,,,,,,,,481208,0,0,,,,,,,,,,,,PVT2011,105,3,76,{SPACE},BThreeSec,489571,279,489850,,,,487555,0,0,,,,,,,,,,,,,,,,,,,,,PVT2011,105,3,77,{SPACE},HNineSec,498869,296,499165,,,,,,,,,,,,,,,,,,,,,,490856,6493,497349,,,PVT2011,105,3,78,{SPACE},CFourSec,503185,314,503499,,,,,,,500170,0,0,,,,,,,,,,,,,,,,,,PVT2011,105,3,79,{SPACE},ESixSec,509516,285,509801,,,,,,,,,,,,,504503,0,0,,,,,,,,,,,,PVT2011,105,3,80,{SPACE},ATwoSec,511832,431,512263,510817,0,0,,,,,,,,,,,,,,,,,,,,,,,,PVT2011,105,3,81,{SPACE},HNineSec,521280,283,521563,,,,,,,,,,,,,,,,,,,,,,513267,0,0,,,PVT2011,105,3,82,{SPACE},GEightSec,529595,214,529809,,,,,,,,,,,,,,,,,,,522581,0,0,,,,,,PVT2011,105,3,83,{SPACE},ITenSec,539825,283,540108,,,,,,,,,,,,,,,,,,,,,,,,,530812,0,0PVT2011,105,3,84,{SPACE},GEightSec,548140,242,548382,,,,,,,,,,,,,,,,,,,541126,0,0,,,,,,PVT2011,105,3,85,{SPACE},FSevenSec,555405,262,555667,,,,,,,,,,,,,,,,549391,0,0,,,,,,,,,PVT2011,105,3,86,{SPACE},FSevenSec,562686,271,562957,,,,,,,,,,,,,,,,556672,0,0,,,,,,,,,PVT2011,105,3,87,{SPACE},ATwoSec,564986,433,565419,563971,0,0,,,,,,,,,,,,,,,,,,,,,,,,PVT2011,105,3,88,{SPACE},CFourSec,569451,400,569851,,,,,,,566437,0,0,,,,,,,,,,,,,,,,,,PVT2011,105,3,89,{SPACE},DFiveSec,574883,236,575119,,,,,,,,,,570868,0,0,,,,,,,,,,,,,,,PVT2011,105,3,90,{SPACE},ITenSec,585147,246,585393,,,,,,,,,,,,,,,,,,,,,,,,,576134,0,0PVT2011,105,3,91,{SPACE},ITenSec,595411,197,595608,,,,,,,,,,,,,,,,,,,,,,,,,586398,0,0PVT2011,105,3,92,{SPACE},CFourSec,599627,241,599868,,,,,,,596612,0,0,,,,,,,,,,,,,,,,,,PVT2011,105,3,93,{SPACE},HNineSec,608891,232,609123,,,,,,,,,,,,,,,,,,,,,,600878,0,0,,,PVT2011,105,3,94,{SPACE},ITenSec,619139,270,619409,,,,,,,,,,,,,,,,,,,,,,,,,610126,0,0PVT2011,105,3,95,{SPACE},FSevenSec,626437,224,626661,,,,,,,,,,,,,,,,620423,0,0,,,,,,,,,PVT2011,105,4,,,,,,,,,,,,,,,,,,,,,,,,,,,,,,,,,PVT2011,105,4,1,{SPACE},GEightSec,29435,262,29697,,,,,,,,,,,,,,,,,,,22420,0,0,,,,,,PVT2011,105,4,2,{SPACE},DFiveSec,34733,231,34964,,,,,,,,,,30718,0,0,,,,,,,,,,,,,,,PVT2011,105,4,3,{SPACE},HNineSec,43981,208,44189,,,,,,,,,,,,,,,,,,,,,,35968,0,0,,,PVT2011,105,4,4,{SPACE},ESixSec,50213,243,50456,,,,,,,,,,,,,45199,0,0,,,,,,,,,,,,PVT2011,105,4,5,{SPACE},FSevenSec,57478,236,57714,,,,,,,,,,,,,,,,51464,0,0,,,,,,,,,PVT2011,105,4,6,{SPACE},ATwoSec,59744,355,60099,58729,0,0,,,,,,,,,,,,,,,,,,,,,,,,PVT2011,105,4,7,{SPACE},ESixSec,66125,292,66417,,,,,,,,,,,,,61111,0,0,,,,,,,,,,,,PVT2011,105,4,8,{SPACE},CFourSec,70441,238,70679,,,,,,,67426,0,0,,,,,,,,,,,,,,,,,,PVT2011,105,4,9,{SPACE},ITenSec,80705,239,80944,,,,,,,,,,,,,,,,,,,,,,,,,71692,0,0PVT2011,105,4,10,{SPACE},HNineSec,89969,258,90227,,,,,,,,,,,,,,,,,,,,,,81956,0,0,,,PVT2011,105,4,11,{SPACE},BThreeSec,93252,266,93518,,,,91237,0,0,,,,,,,,,,,,,,,,,,,,,PVT2011,105,4,12,{SPACE},ATwoSec,95551,378,95929,94536,0,0,,,,,,,,,,,,,,,,,,,,,,,,PVT2011,105,4,13,{SPACE},GEightSec,103949,229,104178,,,,,,,,,,,,,,,,,,,96935,0,0,,,,,,PVT2011,105,4,14,{SPACE},DFiveSec,109198,248,109446,,,,,,,,,,105183,0,0,,,,,,,,,,,,,,,PVT2011,105,4,15,{SPACE},CFourSec,113463,274,113737,,,,,,,110449,0,0,,,,,,,,,,,,,,,,,,PVT2011,105,4,16,{SPACE},FSevenSec,120761,215,120976,,,,,,,,,,,,,,,,114747,0,0,,,,,,,,,PVT2011,105,4,17,{SPACE},ITenSec,130992,233,131225,,,,,,,,,,,,,,,,,,,,,,,,,121979,0,0PVT2011,105,4,18,{SPACE},BThreeSec,134258,265,134523,,,,132243,0,0,,,,,,,,,,,,,,,,,,,,,PVT2011,105,4,19,{SPACE},ATwoSec,136541,262,136803,135526,0,0,,,,,,,,,,,,,,,,,,,,,,,,PVT2011,105,4,20,{SPACE},FSevenSec,143822,254,144076,,,,,,,,,,,,,,,,137808,0,0,,,,,,,,,PVT2011,105,4,21,{SPACE},HNineSec,153103,205,153308,,,,,,,,,,,,,,,,,,,,,,145090,0,0,,,PVT2011,105,4,22,{SPACE},ESixSec,159335,242,159577,,,,,,,,,,,,,154321,0,0,,,,,,,,,,,,PVT2011,105,4,23,{SPACE},DFiveSec,164600,240,164840,,,,,,,,,,160586,0,0,,,,,,,,,,,,,,,PVT2011,105,4,24,{SPACE},GEightSec,172865,220,173085,,,,,,,,,,,,,,,,,,,165851,0,0,,,,,,PVT2011,105,4,25,{SPACE},BThreeSec,176114,295,176409,,,,174099,0,0,,,,,,,,,,,,,,,,,,,,,PVT2011,105,4,26,{SPACE},FSevenSec,183429,224,183653,,,,,,,,,,,,,,,,177415,0,0,,,,,,,,,PVT2011,105,4,27,{SPACE},ATwoSec,185678,368,186046,184663,0,0,,,,,,,,,,,,,,,,,,,,,,,,PVT2011,105,4,28,{SPACE},ITenSec,196075,209,196284,,,,,,,,,,,,,,,,,,,,,,,,,187062,0,0PVT2011,105,4,29,{SPACE},HNineSec,205306,219,205525,,,,,,,,,,,,,,,,,,,,,,197293,0,0,,,PVT2011,105,4,30,{SPACE},ESixSec,211555,255,211810,,,,,,,,,,,,,206541,0,0,,,,,,,,,,,,PVT2011,105,4,31,{SPACE},DFiveSec,216837,232,217069,,,,,,,,,,212822,0,0,,,,,,,,,,,,,,,PVT2011,105,4,32,{SPACE},CFourSec,221086,260,221346,,,,,,,218072,0,0,,,,,,,,,,,,,,,,,,PVT2011,105,4,33,{SPACE},BThreeSec,224368,259,224627,,,,222353,0,0,,,,,,,,,,,,,,,,,,,,,PVT2011,105,4,34,{SPACE},ITenSec,234649,250,234899,,,,,,,,,,,,,,,,,,,,,,,,,225636,0,0PVT2011,105,4,35,{SPACE},GEightSec,242930,388,243318,,,,,,,,,,,,,,,,,,,235916,0,0,,,,,,PVT2011,105,4,36,{SPACE},CFourSec,247346,442,247788,,,,,,,244331,0,0,,,,,,,,,,,,,,,,,,PVT2011,105,4,37,{SPACE},ESixSec,253811,253,254064,,,,,,,,,,,,,248796,0,0,,,,,,,,,,,,PVT2011,105,4,38,{SPACE},FSevenSec,261092,341,261433,,,,,,,,,,,,,,,,255078,0,0,,,,,,,,,PVT2011,105,4,39,{SPACE},ITenSec,271456,219,271675,,,,,,,,,,,,,,,,,,,,,,,,,262443,0,0PVT2011,105,4,40,{SPACE},GEightSec,279704,272,279976,,,,,,,,,,,,,,,,,,,272690,0,0,,,,,,PVT2011,105,4,41,{SPACE},HNineSec,289002,220,289222,,,,,,,,,,,,,,,,,,,,,,280988,0,0,,,PVT2011,105,4,42,{SPACE},ESixSec,295250,274,295524,,,,,,,,,,,,,290236,0,0,,,,,,,,,,,,PVT2011,105,4,43,{SPACE},HNineSec,304548,261,304809,,,,,,,,,,,,,,,,,,,,,,296534,0,0,,,PVT2011,105,4,44,{SPACE},DFiveSec,309830,286,310116,,,,,,,,,,305815,0,0,,,,,,,,,,,,,,,PVT2011,105,4,45,{SPACE},DFiveSec,315145,243,315388,,,,,,,,,,311131,0,0,,,,,,,,,,,,,,,PVT2011,105,4,46,{SPACE},FSevenSec,322410,326,322736,,,,,,,,,,,,,,,,316396,0,0,,,,,,,,,PVT2011,105,4,47,{SPACE},BThreeSec,325759,283,326042,,,,323744,0,0,,,,,,,,,,,,,,,,,,,,,PVT2011,105,4,48,{SPACE},CFourSec,330074,278,330352,,,,,,,327060,0,0,,,,,,,,,,,,,,,,,,PVT2011,105,4,49,{SPACE},CFourSec,334373,267,334640,,,,,,,331359,0,0,,,,,,,,,,,,,,,,,,PVT2011,105,4,50,{SPACE},ATwoSec,336657,371,337028,335656,0,0,,,,,,,,,,,,,,,,,,,,,,,,PVT2011,105,4,51,{SPACE},GEightSec,345054,248,345302,,,,,,,,,,,,,,,,,,,338040,0,0,,,,,,PVT2011,105,4,52,{SPACE},ITenSec,355318,206,355524,,,,,,,,,,,,,,,,,,,,,,,,,346305,0,0PVT2011,105,4,53,{SPACE},BThreeSec,358550,239,358789,,,,356536,0,0,,,,,,,,,,,,,,,,,,,,,PVT2011,105,4,54,{SPACE},ATwoSec,360817,454,361271,359801,0,0,,,,,,,,,,,,,,,,,,,,,,,,PVT2011,105,4,55,{SPACE},GEightSec,369298,237,369535,,,,,,,,,,,,,,,,,,,362284,0,0,,,,,,PVT2011,105,4,56,{SPACE},DFiveSec,374563,392,374955,,,,,,,,,,370549,0,0,,,,,,,,,,,,,,,PVT2011,105,4,57,{SPACE},GEightSec,382978,319,383297,,,,,,,,,,,,,,,,,,,375964,0,0,,,,,,PVT2011,105,4,58,{SPACE},FSevenSec,390326,427,390753,,,,,,,,,,,,,,,,384312,0,0,,,,,,,,,PVT2011,105,4,59,{SPACE},BThreeSec,393775,397,394172,,,,391760,0,0,,,,,,,,,,,,,,,,,,,,,PVT2011,105,4,60,{SPACE},HNineSec,403189,256,403445,,,,,,,,,,,,,,,,,,,,,,395176,0,0,,,PVT2011,105,4,61,{SPACE},ESixSec,409471,328,409799,,,,,,,,,,,,,404457,0,0,,,,,,,,,,,,PVT2011,105,4,62,{SPACE},CFourSec,413820,367,414187,,,,,,,410805,0,0,,,,,,,,,,,,,,,,,,PVT2011,105,4,63,{SPACE},FSevenSec,421218,342,421560,,,,,,,,,,,,,,,,415204,0,0,,,,,,,,,PVT2011,105,4,64,{SPACE},CFourSec,425583,223,425806,,,,,,,422569,0,0,,,,,,,,,,,,,,,,,,PVT2011,105,4,65,{SPACE},ESixSec,431832,345,432177,,,,,,,,,,,,,426818,0,0,,,,,,,,,,,,PVT2011,105,4,66,{SPACE},ITenSec,442196,286,442482,,,,,,,,,,,,,,,,,,,,,,,,,433183,0,0PVT2011,105,4,67,{SPACE},BThreeSec,445512,551,446063,,,,443497,0,0,,,,,,,,,,,,,,,,,,,,,PVT2011,105,4,68,{SPACE},ITenSec,456092,271,456363,,,,,,,,,,,,,,,,,,,,,,,,,447079,0,0PVT2011,105,4,69,{SPACE},ATwoSec,458392,306,458698,457376,0,0,,,,,,,,,,,,,,,,,,,,,,,,PVT2011,105,4,70,{SPACE},ATwoSec,460724,335,461059,459709,0,0,,,,,,,,,,,,,,,,,,,,,,,,PVT2011,105,4,71,{SPACE},DFiveSec,466090,250,466340,,,,,,,,,,462075,0,0,,,,,,,,,,,,,,,PVT2011,105,4,72,{SPACE},HNineSec,475371,221,475592,,,,,,,,,,,,,,,,,,,,,,467357,0,0,,,PVT2011,105,4,73,{SPACE},BThreeSec,478620,244,478864,,,,476605,0,0,,,,,,,,,,,,,,,,,,,,,PVT2011,105,4,74,{SPACE},GEightSec,486884,269,487153,,,,,,,,,,,,,,,,,,,479871,0,0,,,,,,PVT2011,105,4,75,{SPACE},BThreeSec,490183,346,490529,,,,488169,0,0,,,,,,,,,,,,,,,,,,,,,PVT2011,105,4,76,{SPACE},HNineSec,499548,250,499798,,,,,,,,,,,,,,,,,,,,,,491534,0,0,,,PVT2011,105,4,77,{SPACE},ATwoSec,501830,364,502194,500815,0,0,,,,,,,,,,,,,,,,,,,,,,,,PVT2011,105,4,78,{SPACE},GEightSec,510212,408,510620,,,,,,,,,,,,,,,,,,,503198,0,0,,,,,,PVT2011,105,4,79,{SPACE},HNineSec,519643,209,519852,,,,,,,,,,,,,,,,,,,,,,511629,0,0,,,PVT2011,105,4,80,{SPACE},ESixSec,525874,243,526117,,,,,,,,,,,,,520860,0,0,,,,,,,,,,,,PVT2011,105,4,81,{SPACE},CFourSec,530140,210,530350,,,,,,,527125,0,0,,,,,,,,,,,,,,,,,,PVT2011,105,4,82,{SPACE},DFiveSec,535372,273,535645,,,,,,,,,,531357,0,0,,,,,,,,,,,,,,,PVT2011,105,4,83,{SPACE},ITenSec,545669,242,545911,,,,,,,,,,,,,,,,,,,,,,,,,536656,0,0PVT2011,105,4,84,{SPACE},CFourSec,549935,266,550201,,,,,,,546920,0,0,,,,,,,,,,,,,,,,,,PVT2011,105,4,85,{SPACE},ITenSec,560232,221,560453,,,,,,,,,,,,,,,,,,,,,,,,,551219,0,0PVT2011,105,4,86,{SPACE},ATwoSec,562482,301,562783,561466,0,0,,,,,,,,,,,,,,,,,,,,,,,,PVT2011,105,4,87,{SPACE},ESixSec,568813,209,569022,,,,,,,,,,,,,563799,0,0,,,,,,,,,,,,PVT2011,105,4,88,{SPACE},DFiveSec,574045,238,574283,,,,,,,,,,570031,0,0,,,,,,,,,,,,,,,PVT2011,105,4,89,{SPACE},FSevenSec,581310,214,581524,,,,,,,,,,,,,,,,575296,0,0,,,,,,,,,PVT2011,105,4,90,{SPACE},FSevenSec,588542,261,588803,,,,,,,,,,,,,,,,582528,0,0,,,,,,,,,PVT2011,105,4,91,{SPACE},ITenSec,598822,210,599032,,,,,,,,,,,,,,,,,,,,,,,,,589809,0,0PVT2011,105,4,92,{SPACE},FSevenSec,606054,314,606368,,,,,,,,,,,,,,,,600040,0,0,,,,,,,,,PVT2011,105,4,93,{SPACE},CFourSec,610386,265,610651,,,,,,,607371,0,0,,,,,,,,,,,,,,,,,,PVT2011,105,4,94,{SPACE},ITenSec,620667,357,621024,,,,,,,,,,,,,,,,,,,,,,,,,611654,0,0PVT2011,105,4,95,{SPACE},FSevenSec,628048,270,628318,,,,,,,,,,,,,,,,622034,0,0,,,,,,,,,PVT2011,105,5,,,,,,,,,,,,,,,,,,,,,,,,,,,,,,,,,PVT2011,105,5,1,{SPACE},ITenSec,32584,247,32831,,,,,,,,,,,,,,,,,,,,,,,,,23570,0,0PVT2011,105,5,2,{SPACE},ESixSec,38849,202,39051,,,,,,,,,,,,,33835,0,0,,,,,,,,,,,,PVT2011,105,5,3,{SPACE},FSevenSec,46081,184,46265,,,,,,,,,,,,,,,,40067,0,0,,,,,,,,,PVT2011,105,5,4,{SPACE},HNineSec,55295,208,55503,,,,,,,,,,,,,,,,,,,,,,47282,0,0,,,PVT2011,105,5,5,{SPACE},GEightSec,63526,206,63732,,,,,,,,,,,,,,,,,,,56513,0,0,,,,,,PVT2011,105,5,6,{SPACE},ESixSec,69758,200,69958,,,,,,,,,,,,,64744,0,0,,,,,,,,,,,,PVT2011,105,5,7,{SPACE},CFourSec,73990,252,74242,,,,,,,70976,0,0,,,,,,,,,,,,,,,,,,PVT2011,105,5,8,{SPACE},CFourSec,78273,274,78547,,,,,,,75258,0,0,,,,,,,,,,,,,,,,,,PVT2011,105,5,9,{SPACE},DFiveSec,83571,222,83793,,,,,,,,,,79557,0,0,,,,,,,,,,,,,,,PVT2011,105,5,10,{SPACE},FSevenSec,90819,200,91019,,,,,,,,,,,,,,,,84805,0,0,,,,,,,,,PVT2011,105,5,11,{SPACE},BThreeSec,94052,226,94278,,,,92037,0,0,,,,,,,,,,,,,,,,,,,,,PVT2011,105,5,12,{SPACE},ITenSec,104299,206,104505,,,,,,,,,,,,,,,,,,,,,,,,,95286,0,0PVT2011,105,5,13,{SPACE},GEightSec,112530,238,112768,,,,,,,,,,,,,,,,,,,105517,0,0,,,,,,PVT2011,105,5,14,{SPACE},BThreeSec,115796,249,116045,,,,113781,0,0,,,,,,,,,,,,,,,,,,,,,PVT2011,105,5,15,{SPACE},DFiveSec,121062,244,121306,,,,,,,,,,117048,0,0,,,,,,,,,,,,,,,PVT2011,105,5,16,{SPACE},ATwoSec,123328,318,123646,122313,0,0,,,,,,,,,,,,,,,,,,,,,,,,PVT2011,105,5,17,{SPACE},ATwoSec,125677,218,125895,124662,0,0,,,,,,,,,,,,,,,,,,,,,,,,PVT2011,105,5,18,{SPACE},HNineSec,134925,216,135141,,,,,,,,,,,,,,,,,,,,,,126911,0,0,,,PVT2011,105,5,19,{SPACE},BThreeSec,138174,231,138405,,,,136159,0,0,,,,,,,,,,,,,,,,,,,,,PVT2011,105,5,20,{SPACE},GEightSec,146422,248,146670,,,,,,,,,,,,,,,,,,,139408,0,0,,,,,,PVT2011,105,5,21,{SPACE},ESixSec,152687,297,152984,,,,,,,,,,,,,147673,0,0,,,,,,,,,,,,PVT2011,105,5,22,{SPACE},GEightSec,161001,243,161244,,,,,,,,,,,,,,,,,,,153988,0,0,,,,,,PVT2011,105,5,23,{SPACE},DFiveSec,166267,287,166554,,,,,,,,,,162252,0,0,,,,,,,,,,,,,,,PVT2011,105,5,24,{SPACE},BThreeSec,169582,291,169873,,,,167568,0,0,,,,,,,,,,,,,,,,,,,,,PVT2011,105,5,25,{SPACE},ESixSec,175898,245,176143,,,,,,,,,,,,,170883,0,0,,,,,,,,,,,,PVT2011,105,5,26,{SPACE},CFourSec,180163,250,180413,,,,,,,177148,0,0,,,,,,,,,,,,,,,,,,PVT2011,105,5,27,{SPACE},FSevenSec,187445,274,187719,,,,,,,,,,,,,,,,181431,0,0,,,,,,,,,PVT2011,105,5,28,{SPACE},DFiveSec,192743,230,192973,,,,,,,,,,188729,0,0,,,,,,,,,,,,,,,PVT2011,105,5,29,{SPACE},ITenSec,202991,235,203226,,,,,,,,,,,,,,,,,,,,,,,,,193977,0,0PVT2011,105,5,30,{SPACE},ATwoSec,205257,367,205624,204242,0,0,,,,,,,,,,,,,,,,,,,,,,,,PVT2011,105,5,31,{SPACE},ITenSec,215654,197,215851,,,,,,,,,,,,,,,,,,,,,,,,,206641,0,0PVT2011,105,5,32,{SPACE},ATwoSec,217870,320,218190,216855,0,0,,,,,,,,,,,,,,,,,,,,,,,,PVT2011,105,5,33,{SPACE},HNineSec,227218,238,227456,,,,,,,,,,,,,,,,,,,,,,219204,0,0,,,PVT2011,105,5,34,{SPACE},CFourSec,231483,248,231731,,,,,,,228469,0,0,,,,,,,,,,,,,,,,,,PVT2011,105,5,35,{SPACE},HNineSec,240748,296,241044,,,,,,,,,,,,,,,,,,,,,,232734,0,0,,,PVT2011,105,5,36,{SPACE},FSevenSec,248062,200,248262,,,,,,,,,,,,,,,,242049,0,0,,,,,,,,,PVT2011,105,5,37,{SPACE},FSevenSec,255294,246,255540,,,,,,,,,,,,,,,,249280,0,0,,,,,,,,,PVT2011,105,5,38,{SPACE},GEightSec,263558,199,263757,,,,,,,,,,,,,,,,,,,256545,0,0,,,,,,PVT2011,105,5,39,{SPACE},CFourSec,267774,414,268188,,,,,,,264760,0,0,,,,,,,,,,,,,,,,,,PVT2011,105,5,40,{SPACE},FSevenSec,275205,206,275411,,,,,,,,,,,,,,,,269192,0,0,,,,,,,,,PVT2011,105,5,41,{SPACE},ITenSec,285436,224,285660,,,,,,,,,,,,,,,,,,,,,,,,,276423,0,0PVT2011,105,5,42,{SPACE},HNineSec,294684,190,294874,,,,,,,,,,,,,,,,,,,,,,286670,0,0,,,PVT2011,105,5,43,{SPACE},ESixSec,300899,213,301112,,,,,,,,,,,,,295885,0,0,,,,,,,,,,,,PVT2011,105,5,44,{SPACE},DFiveSec,306131,275,306406,,,,,,,,,,302116,0,0,,,,,,,,,,,,,,,PVT2011,105,5,45,{SPACE},ITenSec,316428,273,316701,,,,,,,,,,,,,,,,,,,,,,,,,307415,0,0PVT2011,105,5,46,{SPACE},GEightSec,324726,195,324921,,,,,,,,,,,,,,,,,,,317712,0,0,,,,,,PVT2011,105,5,47,{SPACE},BThreeSec,327942,247,328189,,,,325927,0,0,,,,,,,,,,,,,,,,,,,,,PVT2011,105,5,48,{SPACE},CFourSec,332207,249,332456,,,,,,,329193,0,0,,,,,,,,,,,,,,,,,,PVT2011,105,5,49,{SPACE},ESixSec,338473,224,338697,,,,,,,,,,,,,333459,0,0,,,,,,,,,,,,PVT2011,105,5,50,{SPACE},HNineSec,347720,231,347951,,,,,,,,,,,,,,,,,,,,,,339707,0,0,,,PVT2011,105,5,51,{SPACE},DFiveSec,352969,214,353183,,,,,,,,,,348954,0,0,,,,,,,,,,,,,,,PVT2011,105,5,52,{SPACE},ATwoSec,355202,252,355454,354186,0,0,,,,,,,,,,,,,,,,,,,,,,,,PVT2011,105,5,53,{SPACE},ATwoSec,357484,221,357705,356469,0,0,,,,,,,,,,,,,,,,,,,,,,,,PVT2011,105,5,54,{SPACE},BThreeSec,360734,276,361010,,,,358719,0,0,,,,,,,,,,,,,,,,,,,,,PVT2011,105,5,55,{SPACE},FSevenSec,368032,207,368239,,,,,,,,,,,,,,,,362018,0,0,,,,,,,,,PVT2011,105,5,56,{SPACE},BThreeSec,371264,242,371506,,,,369249,0,0,,,,,,,,,,,,,,,,,,,,,PVT2011,105,5,57,{SPACE},CFourSec,375530,264,375794,,,,,,,372515,0,0,,,,,,,,,,,,,,,,,,PVT2011,105,5,58,{SPACE},HNineSec,384812,228,385040,,,,,,,,,,,,,,,,,,,,,,376797,0,0,,,PVT2011,105,5,59,{SPACE},ITenSec,395058,233,395291,,,,,,,,,,,,,,,,,,,,,,,,,386045,0,0PVT2011,105,5,60,{SPACE},DFiveSec,400323,203,400526,,,,,,,,,,396309,0,0,,,,,,,,,,,,,,,PVT2011,105,5,61,{SPACE},BThreeSec,403556,251,403807,,,,401541,0,0,,,,,,,,,,,,,,,,,,,,,PVT2011,105,5,62,{SPACE},ATwoSec,405839,230,406069,404823,0,0,,,,,,,,,,,,,,,,,,,,,,,,PVT2011,105,5,63,{SPACE},HNineSec,415086,191,415277,,,,,,,,,,,,,,,,,,,,,,407073,0,0,,,PVT2011,105,5,64,{SPACE},CFourSec,419302,273,419575,,,,,,,416287,0,0,,,,,,,,,,,,,,,,,,PVT2011,105,5,65,{SPACE},ESixSec,425600,354,425954,,,,,,,,,,,,,420586,0,0,,,,,,,,,,,,PVT2011,105,5,66,{SPACE},DFiveSec,430982,284,431266,,,,,,,,,,426968,0,0,,,,,,,,,,,,,,,PVT2011,105,5,67,{SPACE},ITenSec,441296,267,441563,,,,,,,,,,,,,,,,,,,,,,,,,432283,0,0PVT2011,105,5,68,{SPACE},GEightSec,449594,273,449867,,,,,,,,,,,,,,,,,,,442580,0,0,,,,,,PVT2011,105,5,69,{SPACE},GEightSec,457892,256,458148,,,,,,,,,,,,,,,,,,,450878,0,0,,,,,,PVT2011,105,5,70,{SPACE},FSevenSec,465173,292,465465,,,,,,,,,,,,,,,,459160,0,0,,,,,,,,,PVT2011,105,5,71,{SPACE},ATwoSec,467490,316,467806,466474,0,0,,,,,,,,,,,,,,,,,,,,,,,,PVT2011,105,5,72,{SPACE},ESixSec,473838,327,474165,,,,,,,,,,,,,468824,0,0,,,,,,,,,,,,PVT2011,105,5,73,{SPACE},BThreeSec,477187,312,477499,,,,475172,0,0,,,,,,,,,,,,,,,,,,,,,PVT2011,105,5,74,{SPACE},ESixSec,483519,281,483800,,,,,,,,,,,,,478505,0,0,,,,,,,,,,,,PVT2011,105,5,75,{SPACE},ITenSec,493816,215,494031,,,,,,,,,,,,,,,,,,,,,,,,,484803,0,0PVT2011,105,5,76,{SPACE},HNineSec,503047,217,503264,,,,,,,,,,,,,,,,,,,,,,495034,0,0,,,PVT2011,105,5,77,{SPACE},DFiveSec,508296,224,508520,,,,,,,,,,504281,0,0,,,,,,,,,,,,,,,PVT2011,105,5,78,{SPACE},GEightSec,516544,270,516814,,,,,,,,,,,,,,,,,,,509530,0,0,,,,,,PVT2011,105,5,79,{SPACE},HNineSec,525841,287,526128,,,,,,,,,,,,,,,,,,,,,,517828,0,0,,,PVT2011,105,5,80,{SPACE},ESixSec,532156,292,532448,,,,,,,,,,,,,527142,0,0,,,,,,,,,,,,PVT2011,105,5,81,{SPACE},CFourSec,536472,364,536836,,,,,,,533457,0,0,,,,,,,,,,,,,,,,,,PVT2011,105,5,82,{SPACE},ITenSec,546853,250,547103,,,,,,,,,,,,,,,,,,,,,,,,,537839,0,0PVT2011,105,5,83,{SPACE},CFourSec,551135,303,551438,,,,,,,548120,0,0,,,,,,,,,,,,,,,,,,PVT2011,105,5,84,{SPACE},ATwoSec,553467,327,553794,552452,0,0,,,,,,,,,,,,,,,,,,,,,,,,PVT2011,105,5,85,{SPACE},ATwoSec,555817,232,556049,554802,0,0,,,,,,,,,,,,,,,,,,,,,,,,PVT2011,105,5,86,{SPACE},GEightSec,564065,279,564344,,,,,,,,,,,,,,,,,,,557052,0,0,,,,,,PVT2011,105,5,87,{SPACE},BThreeSec,567364,332,567696,,,,565349,0,0,,,,,,,,,,,,,,,,,,,,,PVT2011,105,5,88,{SPACE},FSevenSec,574712,278,574990,,,,,,,,,,,,,,,,568699,0,0,,,,,,,,,PVT2011,105,5,89,{SPACE},FSevenSec,582010,425,582435,,,,,,,,,,,,,,,,575996,0,0,,,,,,,,,PVT2011,105,5,90,{SPACE},DFiveSec,587459,300,587759,,,,,,,,,,583444,0,0,,,,,,,,,,,,,,,PVT2011,105,5,91,{SPACE},HNineSec,596790,213,597003,,,,,,,,,,,,,,,,,,,,,,588776,0,0,,,PVT2011,105,5,92,{SPACE},BThreeSec,600022,272,600294,,,,598007,0,0,,,,,,,,,,,,,,,,,,,,,PVT2011,105,5,93,{SPACE},CFourSec,604321,260,604581,,,,,,,601306,0,0,,,,,,,,,,,,,,,,,,PVT2011,105,5,94,{SPACE},GEightSec,612602,309,612911,,,,,,,,,,,,,,,,,,,605589,0,0,,,,,,PVT2011,105,5,95,{SPACE},ITenSec,622933,210,623143,,,,,,,,,,,,,,,,,,,,,,,,,613920,0,0PVT2011,105,6,,,,,,,,,,,,,,,,,,,,,,,,,,,,,,,,,PVT2011,105,6,1,{SPACE},DFiveSec,39428,247,39675,,,,,,,,,,35412,0,0,,,,,,,,,,,,,,,PVT2011,105,6,2,{SPACE},ATwoSec,41711,232,41943,40695,0,0,,,,,,,,,,,,,,,,,,,,,,,,PVT2011,105,6,3,{SPACE},BThreeSec,44976,223,45199,,,,42960,0,0,,,,,,,,,,,,,,,,,,,,,PVT2011,105,6,4,{SPACE},HNineSec,54224,200,54424,,,,,,,,,,,,,,,,,,,,,,46211,0,0,,,PVT2011,105,6,5,{SPACE},BThreeSec,57457,234,57691,,,,55442,0,0,,,,,,,,,,,,,,,,,,,,,PVT2011,105,6,6,{SPACE},GEightSec,65721,303,66024,,,,,,,,,,,,,,,,,,,58708,0,0,,,,,,PVT2011,105,6,7,{SPACE},ESixSec,72053,264,72317,,,,,,,,,,,,,67039,0,0,,,,,,,,,,,,PVT2011,105,6,8,{SPACE},ITenSec,82334,249,82583,,,,,,,,,,,,,,,,,,,,,,,,,73320,0,0PVT2011,105,6,9,{SPACE},CFourSec,86616,261,86877,,,,,,,83601,0,0,,,,,,,,,,,,,,,,,,PVT2011,105,6,10,{SPACE},DFiveSec,91898,231,92129,,,,,,,,,,87883,0,0,,,,,,,,,,,,,,,PVT2011,105,6,11,{SPACE},FSevenSec,99146,261,99407,,,,,,,,,,,,,,,,93132,0,0,,,,,,,,,PVT2011,105,6,12,{SPACE},FSevenSec,106427,271,106698,,,,,,,,,,,,,,,,100413,0,0,,,,,,,,,PVT2011,105,6,13,{SPACE},ATwoSec,108727,233,108960,107712,0,0,,,,,,,,,,,,,,,,,,,,,,,,PVT2011,105,6,14,{SPACE},CFourSec,112992,205,113197,,,,,,,109978,0,0,,,,,,,,,,,,,,,,,,PVT2011,105,6,15,{SPACE},ITenSec,123223,233,123456,,,,,,,,,,,,,,,,,,,,,,,,,114210,0,0PVT2011,105,6,16,{SPACE},GEightSec,131488,203,131691,,,,,,,,,,,,,,,,,,,124474,0,0,,,,,,PVT2011,105,6,17,{SPACE},ESixSec,137719,227,137946,,,,,,,,,,,,,132705,0,0,,,,,,,,,,,,PVT2011,105,6,18,{SPACE},HNineSec,146967,208,147175,,,,,,,,,,,,,,,,,,,,,,138954,0,0,,,PVT2011,105,6,19,{SPACE},CFourSec,151199,245,151444,,,,,,,148185,0,0,,,,,,,,,,,,,,,,,,PVT2011,105,6,20,{SPACE},ESixSec,157464,260,157724,,,,,,,,,,,,,152450,0,0,,,,,,,,,,,,PVT2011,105,6,21,{SPACE},GEightSec,165745,245,165990,,,,,,,,,,,,,,,,,,,158732,0,0,,,,,,PVT2011,105,6,22,{SPACE},HNineSec,175010,387,175397,,,,,,,,,,,,,,,,,,,,,,166996,0,0,,,PVT2011,105,6,23,{SPACE},FSevenSec,182425,259,182684,,,,,,,,,,,,,,,,176411,0,0,,,,,,,,,PVT2011,105,6,24,{SPACE},ATwoSec,184707,347,185054,183692,0,0,,,,,,,,,,,,,,,,,,,,,,,,PVT2011,105,6,25,{SPACE},DFiveSec,190073,260,190333,,,,,,,,,,186058,0,0,,,,,,,,,,,,,,,PVT2011,105,6,26,{SPACE},FSevenSec,197354,231,197585,,,,,,,,,,,,,,,,191340,0,0,,,,,,,,,PVT2011,105,6,27,{SPACE},ATwoSec,199603,264,199867,198588,0,0,,,,,,,,,,,,,,,,,,,,,,,,PVT2011,105,6,28,{SPACE},ITenSec,209884,235,210119,,,,,,,,,,,,,,,,,,,,,,,,,200871,0,0PVT2011,105,6,29,{SPACE},GEightSec,218149,255,218404,,,,,,,,,,,,,,,,,,,211135,0,0,,,,,,PVT2011,105,6,30,{SPACE},BThreeSec,221431,263,221694,,,,219416,0,0,,,,,,,,,,,,,,,,,,,,,PVT2011,105,6,31,{SPACE},ITenSec,231712,265,231977,,,,,,,,,,,,,,,,,,,,,,,,,222699,0,0PVT2011,105,6,32,{SPACE},ESixSec,237994,319,238313,,,,,,,,,,,,,232980,0,0,,,,,,,,,,,,PVT2011,105,6,33,{SPACE},BThreeSec,241343,211,241554,,,,239328,0,0,,,,,,,,,,,,,,,,,,,,,PVT2011,105,6,34,{SPACE},HNineSec,250574,207,250781,,,,,,,,,,,,,,,,,,,,,,242560,0,0,,,PVT2011,105,6,35,{SPACE},CFourSec,254806,245,255051,,,,,,,251791,0,0,,,,,,,,,,,,,,,,,,PVT2011,105,6,36,{SPACE},DFiveSec,260071,236,260307,,,,,,,,,,256057,0,0,,,,,,,,,,,,,,,PVT2011,105,6,37,{SPACE},ITenSec,270335,203,270538,,,,,,,,,,,,,,,,,,,,,,,,,261322,0,0PVT2011,105,6,38,{SPACE},CFourSec,274568,260,274828,,,,,,,271553,0,0,,,,,,,,,,,,,,,,,,PVT2011,105,6,39,{SPACE},ITenSec,284848,211,285059,,,,,,,,,,,,,,,,,,,,,,,,,275835,0,0PVT2011,105,6,40,{SPACE},BThreeSec,288081,263,288344,,,,286066,0,0,,,,,,,,,,,,,,,,,,,,,PVT2011,105,6,41,{SPACE},ATwoSec,290364,325,290689,289348,0,0,,,,,,,,,,,,,,,,,,,,,,,,PVT2011,105,6,42,{SPACE},GEightSec,298711,274,298985,,,,,,,,,,,,,,,,,,,291698,0,0,,,,,,PVT2011,105,6,43,{SPACE},DFiveSec,304010,194,304204,,,,,,,,,,299996,0,0,,,,,,,,,,,,,,,PVT2011,105,6,44,{SPACE},FSevenSec,311225,255,311480,,,,,,,,,,,,,,,,305211,0,0,,,,,,,,,PVT2011,105,6,45,{SPACE},GEightSec,319506,193,319699,,,,,,,,,,,,,,,,,,,312492,0,0,,,,,,PVT2011,105,6,46,{SPACE},ATwoSec,321722,311,322033,320707,0,0,,,,,,,,,,,,,,,,,,,,,,,,PVT2011,105,6,47,{SPACE},CFourSec,326054,301,326355,,,,,,,323040,0,0,,,,,,,,,,,,,,,,,,PVT2011,105,6,48,{SPACE},HNineSec,335385,215,335600,,,,,,,,,,,,,,,,,,,,,,327372,0,0,,,PVT2011,105,6,49,{SPACE},HNineSec,344616,275,344891,,,,,,,,,,,,,,,,,,,,,,336603,0,0,,,PVT2011,105,6,50,{SPACE},ESixSec,350915,223,351138,,,,,,,,,,,,,345901,0,0,,,,,,,,,,,,PVT2011,105,6,51,{SPACE},BThreeSec,354164,222,354386,,,,352149,0,0,,,,,,,,,,,,,,,,,,,,,PVT2011,105,6,52,{SPACE},ESixSec,360412,188,360600,,,,,,,,,,,,,355398,0,0,,,,,,,,,,,,PVT2011,105,6,53,{SPACE},DFiveSec,365628,236,365864,,,,,,,,,,361613,0,0,,,,,,,,,,,,,,,PVT2011,105,6,54,{SPACE},FSevenSec,372892,219,373111,,,,,,,,,,,,,,,,366879,0,0,,,,,,,,,PVT2011,105,6,55,{SPACE},ITenSec,383140,197,383337,,,,,,,,,,,,,,,,,,,,,,,,,374127,0,0PVT2011,105,6,56,{SPACE},FSevenSec,390355,240,390595,,,,,,,,,,,,,,,,384341,0,0,,,,,,,,,PVT2011,105,6,57,{SPACE},CFourSec,394620,247,394867,,,,,,,391606,0,0,,,,,,,,,,,,,,,,,,PVT2011,105,6,58,{SPACE},CFourSec,398886,249,399135,,,,,,,395871,0,0,,,,,,,,,,,,,,,,,,PVT2011,105,6,59,{SPACE},ATwoSec,401169,393,401562,400153,0,0,,,,,,,,,,,,,,,,,,,,,,,,PVT2011,105,6,60,{SPACE},ESixSec,407584,353,407937,,,,,,,,,,,,,402569,0,0,,,,,,,,,,,,PVT2011,105,6,61,{SPACE},ESixSec,413965,244,414209,,,,,,,,,,,,,408951,0,0,,,,,,,,,,,,PVT2011,105,6,62,{SPACE},BThreeSec,417231,339,417570,,,,415216,0,0,,,,,,,,,,,,,,,,,,,,,PVT2011,105,6,63,{SPACE},BThreeSec,420597,300,420897,,,,418582,0,0,,,,,,,,,,,,,,,,,,,,,PVT2011,105,6,64,{SPACE},FSevenSec,427928,270,428198,,,,,,,,,,,,,,,,421914,0,0,,,,,,,,,PVT2011,105,6,65,{SPACE},HNineSec,437226,215,437441,,,,,,,,,,,,,,,,,,,,,,429213,0,0,,,PVT2011,105,6,66,{SPACE},ATwoSec,439475,290,439765,438459,0,0,,,,,,,,,,,,,,,,,,,,,,,,PVT2011,105,6,67,{SPACE},DFiveSec,444791,258,445049,,,,,,,,,,440776,0,0,,,,,,,,,,,,,,,PVT2011,105,6,68,{SPACE},HNineSec,454072,207,454279,,,,,,,,,,,,,,,,,,,,,,446058,0,0,,,PVT2011,105,6,69,{SPACE},ITenSec,464302,220,464522,,,,,,,,,,,,,,,,,,,,,,,,,455289,0,0PVT2011,105,6,70,{SPACE},GEightSec,472550,253,472803,,,,,,,,,,,,,,,,,,,465537,0,0,,,,,,PVT2011,105,6,71,{SPACE},GEightSec,480831,221,481052,,,,,,,,,,,,,,,,,,,473818,0,0,,,,,,PVT2011,105,6,72,{SPACE},DFiveSec,486080,229,486309,,,,,,,,,,482066,0,0,,,,,,,,,,,,,,,PVT2011,105,6,73,{SPACE},DFiveSec,491329,233,491562,,,,,,,,,,487314,0,0,,,,,,,,,,,,,,,PVT2011,105,6,74,{SPACE},ESixSec,497610,289,497899,,,,,,,,,,,,,492595,0,0,,,,,,,,,,,,PVT2011,105,6,75,{SPACE},DFiveSec,502926,245,503171,,,,,,,,,,498911,0,0,,,,,,,,,,,,,,,PVT2011,105,6,76,{SPACE},BThreeSec,506192,472,506664,,,,504177,0,0,,,,,,,,,,,,,,,,,,,,,PVT2011,105,6,77,{SPACE},ITenSec,516689,245,516934,,,,,,,,,,,,,,,,,,,,,,,,,507676,0,0PVT2011,105,6,78,{SPACE},ITenSec,526953,195,527148,,,,,,,,,,,,,,,,,,,,,,,,,517940,0,0PVT2011,105,6,79,{SPACE},CFourSec,531169,221,531390,,,,,,,528154,0,0,,,,,,,,,,,,,,,,,,PVT2011,105,6,80,{SPACE},ATwoSec,533418,217,533635,532403,0,0,,,,,,,,,,,,,,,,,,,,,,,,PVT2011,105,6,81,{SPACE},ESixSec,539666,373,540039,,,,,,,,,,,,,534652,0,0,,,,,,,,,,,,PVT2011,105,6,82,{SPACE},HNineSec,549064,282,549346,,,,,,,,,,,,,,,,,,,,,,541051,0,0,,,PVT2011,105,6,83,{SPACE},FSevenSec,556362,223,556585,,,,,,,,,,,,,,,,550349,0,0,,,,,,,,,PVT2011,105,6,84,{SPACE},GEightSec,564610,218,564828,,,,,,,,,,,,,,,,,,,557596,0,0,,,,,,PVT2011,105,6,85,{SPACE},HNineSec,573858,316,574174,,,,,,,,,,,,,,,,,,,,,,565844,0,0,,,PVT2011,105,6,86,{SPACE},ATwoSec,576207,749,576956,575192,0,0,,,,,,,,,,,,,,,,,,,,,,,,PVT2011,105,6,87,{SPACE},GEightSec,584988,243,585231,,,,,,,,,,,,,,,,,,,577974,0,0,,,,,,PVT2011,105,6,88,{SPACE},BThreeSec,588254,269,588523,,,,586239,0,0,,,,,,,,,,,,,,,,,,,,,PVT2011,105,6,89,{SPACE},CFourSec,592553,222,592775,,,,,,,589538,0,0,,,,,,,,,,,,,,,,,,PVT2011,105,6,90,{SPACE},FSevenSec,599801,256,600057,,,,,,,,,,,,,,,,593787,0,0,,,,,,,,,PVT2011,105,6,91,{SPACE},DFiveSec,605083,351,605434,,,,,,,,,,601069,0,0,,,,,,,,,,,,,,,PVT2011,105,6,92,{SPACE},ATwoSec,607466,267,607733,606451,0,0,,,,,,,,,,,,,,,,,,,,,,,,PVT2011,105,6,93,{SPACE},DFiveSec,612764,237,613001,,,,,,,,,,608750,0,0,,,,,,,,,,,,,,,PVT2011,105,6,94,{SPACE},GEightSec,621029,278,621307,,,,,,,,,,,,,,,,,,,614015,0,0,,,,,,PVT2011,105,6,95,{SPACE},FSevenSec,628327,278,628605,,,,,,,,,,,,,,,,622313,0,0,,,,,,,,,PVT2011,105,6,96,{SPACE},ESixSec,634625,249,634874,,,,,,,,,,,,,629611,0,0,,,,,,,,,,,,PVT2011,106,1,,,,,,,,,,,,,,,,,,,,,,,,,,,,,,,,,PVT2011,106,1,1,{SPACE},GEightSec,71626,262,71888,,,,,,,,,,,,,,,,,,,64611,0,0,,,,,,PVT2011,106,1,2,{SPACE},CFourSec,75908,299,76207,,,,,,,72894,0,0,,,,,,,,,,,,,,,,,,PVT2011,106,1,3,{SPACE},ITenSec,86239,234,86473,,,,,,,,,,,,,,,,,,,,,,,,,77225,0,0PVT2011,106,1,4,{SPACE},ESixSec,92504,306,92810,,,,,,,,,,,,,87489,0,0,,,,,,,,,,,,PVT2011,106,1,5,{SPACE},BThreeSec,95836,237,96073,,,,93821,0,0,,,,,,,,,,,,,,,,,,,,,PVT2011,106,1,6,{SPACE},FSevenSec,103101,310,103411,,,,,,,,,,,,,,,,97087,0,0,,,,,,,,,PVT2011,106,1,7,{SPACE},DFiveSec,108433,353,108786,,,,,,,,,,104419,0,0,,,,,,,,,,,,,,,PVT2011,106,1,8,{SPACE},ATwoSec,110816,293,111109,109801,0,0,,,,,,,,,,,,,,,,,,,,,,,,PVT2011,106,1,9,{SPACE},HNineSec,120130,274,120404,,,,,,,,,,,,,,,,,,,,,,112117,0,0,,,PVT2011,106,1,10,{SPACE},GEightSec,128428,262,128690,,,,,,,,,,,,,,,,,,,121414,0,0,,,,,,