ExperimentName,Subject,Session,Block,BlockList,Trial,CorrectResponse,CueType,Image,Image.ACC,Image.CRESP,Image.RESP,Image.RT,Image.RTTime,MainConditionGoNoGo_r,126,2,1,1,,,,,,,,,,GoNoGo_r,126,2,2,2,1,{SPACE},Cue,BigSquare.bmp,1,{SPACE},{SPACE},472,82693,GoGoNoGo_r,126,2,2,2,2,,Precued,SmallSquare.bmp,1,,,0,0,No GoGoNoGo_r,126,2,2,2,3,{SPACE},Noncue,BigCircle.bmp,1,{SPACE},{SPACE},236,86456,GoGoNoGo_r,126,2,2,2,4,{SPACE},Noncue,SmallCircle.bmp,1,{SPACE},{SPACE},320,88540,GoGoNoGo_r,126,2,2,2,5,{SPACE},Cue,BigSquare.bmp,1,{SPACE},{SPACE},378,90597,GoGoNoGo_r,126,2,2,2,6,,Precued,SmallSquare.bmp,1,,,0,0,No GoGoNoGo_r,126,2,2,2,7,{SPACE},Noncue,BigCircle.bmp,1,{SPACE},{SPACE},199,94434,GoGoNoGo_r,126,2,2,2,8,,Uncued,SmallSquare.bmp,0,,{SPACE},247,96498,No GoGoNoGo_r,126,2,2,2,9,{SPACE},Noncue,BigCircle.bmp,1,{SPACE},{SPACE},244,98478,GoGoNoGo_r,126,2,2,2,10,{SPACE},Noncue,BigCircle.bmp,1,{SPACE},{SPACE},314,100547,GoGoNoGo_r,126,2,3,3,1,{SPACE},Noncue,BigCircle.bmp,1,{SPACE},{SPACE},258,102491,GoGoNoGo_r,126,2,3,3,2,,Uncued,SmallSquare.bmp,1,,,0,0,No GoGoNoGo_r,126,2,3,3,3,{SPACE},Cue,BigSquare.bmp,1,{SPACE},{SPACE},250,106498,GoGoNoGo_r,126,2,3,3,4,,Precued,SmallSquare.bmp,0,,{SPACE},288,108536,No GoGoNoGo_r,126,2,3,3,5,{SPACE},Noncue,SmallCircle.bmp,1,{SPACE},{SPACE},259,110506,GoGoNoGo_r,126,2,3,3,6,{SPACE},Cue,BigSquare.bmp,1,{SPACE},{SPACE},265,112512,GoGoNoGo_r,126,2,3,3,7,,Precued,SmallSquare.bmp,1,,,0,0,No GoGoNoGo_r,126,2,3,3,8,{SPACE},Noncue,BigCircle.bmp,1,{SPACE},{SPACE},208,116470,GoGoNoGo_r,126,2,3,3,9,{SPACE},Cue,BigSquare.bmp,1,{SPACE},{SPACE},313,118575,GoGoNoGo_r,126,2,3,3,10,{SPACE},Noncue,BigCircle.bmp,1,{SPACE},{SPACE},327,120588,GoGoNoGo_r,126,2,4,4,1,{SPACE},Noncue,SmallCircle.bmp,1,{SPACE},{SPACE},280,122541,GoGoNoGo_r,126,2,4,4,2,{SPACE},Cue,BigSquare.bmp,1,{SPACE},{SPACE},356,124633,GoGoNoGo_r,126,2,4,4,3,,Precued,SmallSquare.bmp,1,,,0,0,No GoGoNoGo_r,126,2,4,4,4,{SPACE},Noncue,BigCircle.bmp,1,{SPACE},{SPACE},271,128547,GoGoNoGo_r,126,2,4,4,5,{SPACE},Cue,BigSquare.bmp,1,{SPACE},{SPACE},301,130576,GoGoNoGo_r,126,2,4,4,6,,Precued,SmallSquare.bmp,1,,,0,0,No GoGoNoGo_r,126,2,4,4,7,{SPACE},Noncue,BigCircle.bmp,1,{SPACE},{SPACE},204,134495,GoGoNoGo_r,126,2,4,4,8,{SPACE},Noncue,BigCircle.bmp,1,{SPACE},{SPACE},191,136482,GoGoNoGo_r,126,2,4,4,9,,Uncued,SmallSquare.bmp,1,,,0,0,No GoGoNoGo_r,126,2,4,4,10,{SPACE},Noncue,BigCircle.bmp,1,{SPACE},{SPACE},190,140480,GoGoNoGo_r,126,2,5,5,1,{SPACE},Noncue,BigCircle.bmp,1,{SPACE},{SPACE},330,142619,GoGoNoGo_r,126,2,5,5,2,{SPACE},Noncue,BigCircle.bmp,1,{SPACE},{SPACE},300,144605,GoGoNoGo_r,126,2,5,5,3,{SPACE},Cue,BigSquare.bmp,1,{SPACE},{SPACE},316,146621,GoGoNoGo_r,126,2,5,5,4,,Precued,SmallSquare.bmp,1,,,0,0,No GoGoNoGo_r,126,2,5,5,5,{SPACE},Noncue,BigCircle.bmp,1,{SPACE},{SPACE},220,150524,GoGoNoGo_r,126,2,5,5,6,,Uncued,SmallSquare.bmp,0,,{SPACE},215,152518,No GoGoNoGo_r,126,2,5,5,7,{SPACE},Noncue,BigCircle.bmp,1,{SPACE},{SPACE},237,154556,GoGoNoGo_r,126,2,5,5,8,{SPACE},Noncue,BigCircle.bmp,1,{SPACE},{SPACE},232,156551,GoGoNoGo_r,126,2,5,5,9,{SPACE},Cue,BigSquare.bmp,1,{SPACE},{SPACE},438,158756,GoGoNoGo_r,126,2,5,5,10,,Precued,SmallSquare.bmp,1,,,0,0,No GoGoNoGo_r,126,2,6,6,1,{SPACE},Cue,BigSquare.bmp,1,{SPACE},{SPACE},194,162511,GoGoNoGo_r,126,2,6,6,2,{SPACE},Noncue,BigCircle.bmp,1,{SPACE},{SPACE},207,164540,GoGoNoGo_r,126,2,6,6,3,,Uncued,SmallSquare.bmp,1,,,0,0,No GoGoNoGo_r,126,2,6,6,4,{SPACE},Cue,BigSquare.bmp,1,{SPACE},{SPACE},227,168559,GoGoNoGo_r,126,2,6,6,5,,Precued,SmallSquare.bmp,0,,{SPACE},203,170535,No GoGoNoGo_r,126,2,6,6,6,{SPACE},Noncue,BigCircle.bmp,1,{SPACE},{SPACE},191,172522,GoGoNoGo_r,126,2,6,6,7,{SPACE},Cue,BigSquare.bmp,1,{SPACE},{SPACE},231,174578,GoGoNoGo_r,126,2,6,6,8,,Precued,SmallSquare.bmp,1,,,0,0,No GoGoNoGo_r,126,2,6,6,9,{SPACE},Noncue,SmallCircle.bmp,1,{SPACE},{SPACE},246,178592,GoGoNoGo_r,126,2,6,6,10,,Uncued,SmallSquare.bmp,1,,,0,0,No GoGoNoGo_r,126,2,7,7,1,{SPACE},Noncue,BigCircle.bmp,1,{SPACE},{SPACE},237,182582,GoGoNoGo_r,126,2,7,7,2,{SPACE},Cue,BigSquare.bmp,1,{SPACE},{SPACE},267,184612,GoGoNoGo_r,126,2,7,7,3,,Precued,SmallSquare.bmp,1,,,0,0,No GoGoNoGo_r,126,2,7,7,4,{SPACE},Noncue,SmallCircle.bmp,1,{SPACE},{SPACE},211,188571,GoGoNoGo_r,126,2,7,7,5,,Uncued,SmallSquare.bmp,1,,,0,0,No GoGoNoGo_r,126,2,7,7,6,{SPACE},Noncue,BigCircle.bmp,1,{SPACE},{SPACE},221,192580,GoGoNoGo_r,126,2,7,7,7,{SPACE},Noncue,BigCircle.bmp,1,{SPACE},{SPACE},249,194608,GoGoNoGo_r,126,2,7,7,8,{SPACE},Cue,BigSquare.bmp,1,{SPACE},{SPACE},298,196673,GoGoNoGo_r,126,2,7,7,9,,Precued,SmallSquare.bmp,1,,,0,0,No GoGoNoGo_r,126,2,7,7,10,{SPACE},Noncue,BigCircle.bmp,1,{SPACE},{SPACE},205,200579,GoGoNoGo_r,126,2,8,8,1,{SPACE},Noncue,SmallCircle.bmp,1,{SPACE},{SPACE},280,202653,GoGoNoGo_r,126,2,8,8,2,{SPACE},Cue,BigSquare.bmp,1,{SPACE},{SPACE},397,204770,GoGoNoGo_r,126,2,8,8,3,,Precued,SmallSquare.bmp,0,,{SPACE},289,206678,No GoGoNoGo_r,126,2,8,8,4,{SPACE},Noncue,BigCircle.bmp,1,{SPACE},{SPACE},259,208648,GoGoNoGo_r,126,2,8,8,5,{SPACE},Noncue,BigCircle.bmp,1,{SPACE},{SPACE},253,210641,GoGoNoGo_r,126,2,8,8,6,{SPACE},Cue,BigSquare.bmp,1,{SPACE},{SPACE},281,212668,GoGoNoGo_r,126,2,8,8,7,,Precued,SmallSquare.bmp,1,,,0,0,No GoGoNoGo_r,126,2,8,8,8,{SPACE},Noncue,BigCircle.bmp,1,{SPACE},{SPACE},240,216643,GoGoNoGo_r,126,2,8,8,9,,Uncued,SmallSquare.bmp,1,,,0,0,No GoGoNoGo_r,126,2,8,8,10,{SPACE},Noncue,BigCircle.bmp,1,{SPACE},{SPACE},219,220621,GoGoNoGo_r,126,2,9,9,1,{SPACE},Cue,BigSquare.bmp,1,{SPACE},{SPACE},281,222683,GoGoNoGo_r,126,2,9,9,2,{SPACE},Noncue,SmallCircle.bmp,1,{SPACE},{SPACE},482,224883,GoGoNoGo_r,126,2,9,9,3,{SPACE},Noncue,BigCircle.bmp,1,{SPACE},{SPACE},337,226754,GoGoNoGo_r,126,2,9,9,4,{SPACE},Cue,BigSquare.bmp,1,{SPACE},{SPACE},439,228856,GoGoNoGo_r,126,2,9,9,5,,Precued,SmallSquare.bmp,1,,,0,0,No GoGoNoGo_r,126,2,9,9,6,{SPACE},Cue,BigSquare.bmp,1,{SPACE},{SPACE},212,232628,GoGoNoGo_r,126,2,9,9,7,,Precued,SmallSquare.bmp,0,,{SPACE},225,234640,No GoGoNoGo_r,126,2,9,9,8,{SPACE},Noncue,BigCircle.bmp,1,{SPACE},{SPACE},227,236658,GoGoNoGo_r,126,2,9,9,9,,Uncued,SmallSquare.bmp,1,,,0,0,No GoGoNoGo_r,126,2,9,9,10,{SPACE},Noncue,BigCircle.bmp,1,{SPACE},{SPACE},223,240653,GoGoNoGo_r,126,2,10,10,1,{SPACE},Noncue,BigCircle.bmp,1,{SPACE},{SPACE},283,242713,GoGoNoGo_r,126,2,10,10,2,{SPACE},Cue,BigSquare.bmp,1,{SPACE},{SPACE},294,244723,GoGoNoGo_r,126,2,10,10,3,,Precued,SmallSquare.bmp,1,,,0,0,No GoGoNoGo_r,126,2,10,10,4,{SPACE},Cue,BigSquare.bmp,1,{SPACE},{SPACE},221,248666,GoGoNoGo_r,126,2,10,10,5,,Precued,SmallSquare.bmp,1,,,0,0,No GoGoNoGo_r,126,2,10,10,6,{SPACE},Noncue,BigCircle.bmp,1,{SPACE},{SPACE},188,252632,GoGoNoGo_r,126,2,10,10,7,{SPACE},Cue,BigSquare.bmp,1,{SPACE},{SPACE},275,254718,GoGoNoGo_r,126,2,10,10,8,,Precued,SmallSquare.bmp,1,,,0,0,No GoGoNoGo_r,126,2,10,10,9,{SPACE},Noncue,BigCircle.bmp,1,{SPACE},{SPACE},241,258700,GoGoNoGo_r,126,2,10,10,10,,Uncued,SmallSquare.bmp,1,,,0,0,No GoGoNoGo_r,126,2,11,11,1,{SPACE},Cue,BigSquare.bmp,1,{SPACE},{SPACE},229,262687,GoGoNoGo_r,126,2,11,11,2,,Precued,SmallSquare.bmp,0,,{SPACE},299,264756,No GoGoNoGo_r,126,2,11,11,3,{SPACE},Noncue,BigCircle.bmp,1,{SPACE},{SPACE},226,266683,GoGoNoGo_r,126,2,11,11,4,,Uncued,SmallSquare.bmp,1,,,0,0,No GoGoNoGo_r,126,2,11,11,5,{SPACE},Noncue,BigCircle.bmp,1,{SPACE},{SPACE},259,270731,GoGoNoGo_r,126,2,11,11,6,{SPACE},Noncue,SmallCircle.bmp,1,{SPACE},{SPACE},413,272885,GoGoNoGo_r,126,2,11,11,7,{SPACE},Cue,BigSquare.bmp,1,{SPACE},{SPACE},481,274952,GoGoNoGo_r,126,2,11,11,8,,Precued,SmallSquare.bmp,1,,,0,0,No GoGoNoGo_r,126,2,11,11,9,{SPACE},Noncue,BigCircle.bmp,1,{SPACE},{SPACE},265,278752,GoGoNoGo_r,126,2,11,11,10,,Uncued,SmallSquare.bmp,1,,,0,0,No GoGoNoGo_r,126,2,12,12,1,{SPACE},Noncue,SmallCircle.bmp,1,{SPACE},{SPACE},276,282762,GoGoNoGo_r,126,2,12,12,2,{SPACE},Cue,BigSquare.bmp,1,{SPACE},{SPACE},902,285387,GoGoNoGo_r,126,2,12,12,3,,Precued,SmallSquare.bmp,0,,{SPACE},287,286772,No GoGoNoGo_r,126,2,12,12,4,{SPACE},Cue,BigSquare.bmp,1,{SPACE},{SPACE},254,288755,GoGoNoGo_r,126,2,12,12,5,{SPACE},Noncue,BigCircle.bmp,1,{SPACE},{SPACE},353,290854,GoGoNoGo_r,126,2,12,12,6,{SPACE},Cue,BigSquare.bmp,1,{SPACE},{SPACE},369,292869,GoGoNoGo_r,126,2,12,12,7,,Precued,SmallSquare.bmp,1,,,0,0,No GoGoNoGo_r,126,2,12,12,8,{SPACE},Noncue,BigCircle.bmp,1,{SPACE},{SPACE},244,296743,GoGoNoGo_r,126,2,12,12,9,,Uncued,SmallSquare.bmp,1,,,0,0,No GoGoNoGo_r,126,2,12,12,10,{SPACE},Noncue,BigCircle.bmp,1,{SPACE},{SPACE},234,300749,GoGoNoGo_r,126,2,13,13,1,{SPACE},Cue,BigSquare.bmp,1,{SPACE},{SPACE},292,302806,GoGoNoGo_r,126,2,13,13,2,,Precued,SmallSquare.bmp,1,,,0,0,No GoGoNoGo_r,126,2,13,13,3,{SPACE},Noncue,BigCircle.bmp,1,{SPACE},{SPACE},274,306787,GoGoNoGo_r,126,2,13,13,4,,Uncued,SmallSquare.bmp,1,,,0,0,No GoGoNoGo_r,126,2,13,13,5,{SPACE},Noncue,BigCircle.bmp,1,{SPACE},{SPACE},238,310767,GoGoNoGo_r,126,2,13,13,6,{SPACE},Cue,BigSquare.bmp,1,{SPACE},{SPACE},267,312795,GoGoNoGo_r,126,2,13,13,7,,Precued,SmallSquare.bmp,0,,{SPACE},254,314782,No GoGoNoGo_r,126,2,13,13,8,{SPACE},Noncue,BigCircle.bmp,1,{SPACE},{SPACE},250,316777,GoGoNoGo_r,126,2,13,13,9,{SPACE},Noncue,SmallCircle.bmp,1,{SPACE},{SPACE},210,318753,GoGoNoGo_r,126,2,13,13,10,{SPACE},Noncue,BigCircle.bmp,1,{SPACE},{SPACE},227,320770,GoGoNoGo_r,126,2,14,14,1,,Uncued,SmallSquare.bmp,1,,,0,0,No GoGoNoGo_r,126,2,14,14,2,{SPACE},Noncue,BigCircle.bmp,1,{SPACE},{SPACE},224,324766,GoGoNoGo_r,126,2,14,14,3,{SPACE},Cue,BigSquare.bmp,1,{SPACE},{SPACE},282,326823,GoGoNoGo_r,126,2,14,14,4,,Precued,SmallSquare.bmp,1,,,0,0,No GoGoNoGo_r,126,2,14,14,5,{SPACE},Noncue,BigCircle.bmp,1,{SPACE},{SPACE},242,330799,GoGoNoGo_r,126,2,14,14,6,{SPACE},Cue,BigSquare.bmp,1,{SPACE},{SPACE},231,332787,GoGoNoGo_r,126,2,14,14,7,,Precued,SmallSquare.bmp,1,,,0,0,No GoGoNoGo_r,126,2,14,14,8,{SPACE},Noncue,BigCircle.bmp,1,{SPACE},{SPACE},239,336794,GoGoNoGo_r,126,2,14,14,9,{SPACE},Noncue,SmallCircle.bmp,1,{SPACE},{SPACE},666,339221,GoGoNoGo_r,126,2,14,14,10,{SPACE},Noncue,BigCircle.bmp,1,{SPACE},{SPACE},411,340982,GoGoNoGo_r,126,2,15,15,1,{SPACE},Cue,BigSquare.bmp,1,{SPACE},{SPACE},274,342844,GoGoNoGo_r,126,2,15,15,2,,Precued,SmallSquare.bmp,1,,,0,0,No GoGoNoGo_r,126,2,15,15,3,{SPACE},Noncue,BigCircle.bmp,1,{SPACE},{SPACE},202,346771,GoGoNoGo_r,126,2,15,15,4,,Uncued,SmallSquare.bmp,0,,{SPACE},309,348878,No GoGoNoGo_r,126,2,15,15,5,{SPACE},Noncue,BigCircle.bmp,1,{SPACE},{SPACE},366,350951,GoGoNoGo_r,126,2,15,15,6,{SPACE},Cue,BigSquare.bmp,1,{SPACE},{SPACE},247,352831,GoGoNoGo_r,126,2,15,15,7,,Precued,SmallSquare.bmp,1,,,0,0,No GoGoNoGo_r,126,2,15,15,8,{SPACE},Noncue,BigCircle.bmp,1,{SPACE},{SPACE},204,356787,GoGoNoGo_r,126,2,15,15,9,{SPACE},Cue,BigSquare.bmp,1,{SPACE},{SPACE},401,358984,GoGoNoGo_r,126,2,15,15,10,{SPACE},Noncue,BigCircle.bmp,1,{SPACE},{SPACE},341,360940,GoGoNoGo_r,126,2,16,16,1,{SPACE},Noncue,SmallCircle.bmp,1,{SPACE},{SPACE},332,362931,GoGoNoGo_r,126,2,16,16,2,,Uncued,SmallSquare.bmp,0,,{SPACE},335,364933,No GoGoNoGo_r,126,2,16,16,3,{SPACE},Cue,BigSquare.bmp,1,{SPACE},{SPACE},218,366815,GoGoNoGo_r,126,2,16,16,4,,Precued,SmallSquare.bmp,0,,{SPACE},306,368903,No GoGoNoGo_r,126,2,16,16,5,{SPACE},Noncue,BigCircle.bmp,1,{SPACE},{SPACE},233,370846,GoGoNoGo_r,126,2,16,16,6,{SPACE},Noncue,BigCircle.bmp,1,{SPACE},{SPACE},256,372869,GoGoNoGo_r,126,2,16,16,7,{SPACE},Cue,BigSquare.bmp,1,{SPACE},{SPACE},229,374841,GoGoNoGo_r,126,2,16,16,8,,Precued,SmallSquare.bmp,1,,,0,0,No GoGoNoGo_r,126,2,16,16,9,{SPACE},Noncue,BigCircle.bmp,1,{SPACE},{SPACE},238,378849,GoGoNoGo_r,126,2,16,16,10,{SPACE},Noncue,SmallCircle.bmp,1,{SPACE},{SPACE},332,380959,GoGoNoGo_r,126,2,17,17,1,{SPACE},Noncue,BigCircle.bmp,1,{SPACE},{SPACE},393,383020,GoGoNoGo_r,126,2,17,17,2,,Uncued,SmallSquare.bmp,1,,,0,0,No GoGoNoGo_r,126,2,17,17,3,{SPACE},Noncue,SmallCircle.bmp,1,{SPACE},{SPACE},228,386854,GoGoNoGo_r,126,2,17,17,4,{SPACE},Cue,BigSquare.bmp,1,{SPACE},{SPACE},447,389072,GoGoNoGo_r,126,2,17,17,5,,Precued,SmallSquare.bmp,0,,{SPACE},203,390844,No GoGoNoGo_r,126,2,17,17,6,{SPACE},Cue,BigSquare.bmp,1,{SPACE},{SPACE},323,392964,GoGoNoGo_r,126,2,17,17,7,,Precued,SmallSquare.bmp,1,,,0,0,No GoGoNoGo_r,126,2,17,17,8,{SPACE},Noncue,BigCircle.bmp,1,{SPACE},{SPACE},211,396851,GoGoNoGo_r,126,2,17,17,9,{SPACE},Noncue,SmallCircle.bmp,1,{SPACE},{SPACE},278,398917,GoGoNoGo_r,126,2,17,17,10,{SPACE},Noncue,BigCircle.bmp,1,{SPACE},{SPACE},258,400913,GoGoNoGo_r,126,2,18,18,1,{SPACE},Cue,BigSquare.bmp,1,{SPACE},{SPACE},257,402912,GoGoNoGo_r,126,2,18,18,2,,Precued,SmallSquare.bmp,1,,,0,0,No GoGoNoGo_r,126,2,18,18,3,{SPACE},Noncue,BigCircle.bmp,1,{SPACE},{SPACE},235,406889,GoGoNoGo_r,126,2,18,18,4,,Uncued,SmallSquare.bmp,1,,,0,0,No GoGoNoGo_r,126,2,18,18,5,{SPACE},Cue,BigSquare.bmp,1,{SPACE},{SPACE},238,410907,GoGoNoGo_r,126,2,18,18,6,{SPACE},Noncue,BigCircle.bmp,1,{SPACE},{SPACE},305,412974,GoGoNoGo_r,126,2,18,18,7,{SPACE},Noncue,SmallCircle.bmp,1,{SPACE},{SPACE},421,415089,GoGoNoGo_r,126,2,18,18,8,{SPACE},Cue,BigSquare.bmp,1,{SPACE},{SPACE},796,417464,GoGoNoGo_r,126,2,18,18,9,,Precued,SmallSquare.bmp,1,,,0,0,No GoGoNoGo_r,126,2,18,18,10,{SPACE},Noncue,BigCircle.bmp,1,{SPACE},{SPACE},248,420915,GoGoNoGo_r,126,2,19,19,1,,Uncued,SmallSquare.bmp,0,,{SPACE},263,422946,No GoGoNoGo_r,126,2,19,19,2,{SPACE},Noncue,BigCircle.bmp,1,{SPACE},{SPACE},230,424912,GoGoNoGo_r,126,2,19,19,3,{SPACE},Noncue,BigCircle.bmp,1,{SPACE},{SPACE},363,427045,GoGoNoGo_r,126,2,19,19,4,{SPACE},Cue,BigSquare.bmp,1,{SPACE},{SPACE},380,429061,GoGoNoGo_r,126,2,19,19,5,,Precued,SmallSquare.bmp,1,,,0,0,No GoGoNoGo_r,126,2,19,19,6,{SPACE},Cue,BigSquare.bmp,1,{SPACE},{SPACE},513,433210,GoGoNoGo_r,126,2,19,19,7,,Precued,SmallSquare.bmp,1,,,0,0,No GoGoNoGo_r,126,2,19,19,8,{SPACE},Noncue,BigCircle.bmp,1,{SPACE},{SPACE},266,436962,GoGoNoGo_r,126,2,19,19,9,{SPACE},Noncue,BigCircle.bmp,1,{SPACE},{SPACE},359,439054,GoGoNoGo_r,126,2,19,19,10,{SPACE},Noncue,BigCircle.bmp,1,{SPACE},{SPACE},301,440996,GoGoNoGo_r,104,1,1,1,,,,,,,,,,GoNoGo_r,104,1,2,2,1,{SPACE},Cue,BigSquare.bmp,1,{SPACE},{SPACE},491,96929,GoGoNoGo_r,104,1,2,2,2,,Precued,SmallSquare.bmp,0,,{SPACE},308,98779,No GoGoNoGo_r,104,1,2,2,3,{SPACE},Noncue,BigCircle.bmp,1,{SPACE},{SPACE},418,100922,GoGoNoGo_r,104,1,2,2,4,{SPACE},Noncue,SmallCircle.bmp,0,{SPACE},,0,0,GoGoNoGo_r,104,1,2,2,5,{SPACE},Cue,BigSquare.bmp,1,{SPACE},{SPACE},267,104703,GoGoNoGo_r,104,1,2,2,6,,Precued,SmallSquare.bmp,0,,{SPACE},423,106859,No GoGoNoGo_r,104,1,2,2,7,{SPACE},Noncue,BigCircle.bmp,1,{SPACE},{SPACE},344,108796,GoGoNoGo_r,104,1,2,2,8,,Uncued,SmallSquare.bmp,0,,{SPACE},286,110737,No GoGoNoGo_r,104,1,2,2,9,{SPACE},Noncue,BigCircle.bmp,1,{SPACE},{SPACE},467,112918,GoGoNoGo_r,104,1,2,2,10,{SPACE},Noncue,BigCircle.bmp,1,{SPACE},{SPACE},384,114834,GoGoNoGo_r,104,1,3,3,1,{SPACE},Noncue,BigCircle.bmp,1,{SPACE},{SPACE},353,116803,GoGoNoGo_r,104,1,3,3,2,,Uncued,SmallSquare.bmp,0,,{SPACE},332,118798,No GoGoNoGo_r,104,1,3,3,3,{SPACE},Cue,BigSquare.bmp,1,{SPACE},{SPACE},578,121044,GoGoNoGo_r,104,1,3,3,4,,Precued,SmallSquare.bmp,1,,,0,0,No GoGoNoGo_r,104,1,3,3,5,{SPACE},Noncue,SmallCircle.bmp,1,{SPACE},{SPACE},393,124858,GoGoNoGo_r,104,1,3,3,6,{SPACE},Cue,BigSquare.bmp,1,{SPACE},{SPACE},323,126787,GoGoNoGo_r,104,1,3,3,7,,Precued,SmallSquare.bmp,0,,{SPACE},290,128770,No GoGoNoGo_r,104,1,3,3,8,{SPACE},Noncue,BigCircle.bmp,1,{SPACE},{SPACE},627,131107,GoGoNoGo_r,104,1,3,3,9,{SPACE},Cue,BigSquare.bmp,1,{SPACE},{SPACE},599,133078,GoGoNoGo_r,104,1,3,3,10,{SPACE},Noncue,BigCircle.bmp,1,{SPACE},{SPACE},472,134951,GoGoNoGo_r,104,1,4,4,1,{SPACE},Noncue,SmallCircle.bmp,1,{SPACE},{SPACE},444,136922,GoGoNoGo_r,104,1,4,4,2,{SPACE},Cue,BigSquare.bmp,1,{SPACE},{SPACE},360,138838,GoGoNoGo_r,104,1,4,4,3,,Precued,SmallSquare.bmp,0,,{SPACE},271,140765,No GoGoNoGo_r,104,1,4,4,4,{SPACE},Noncue,BigCircle.bmp,1,{SPACE},{SPACE},406,142899,GoGoNoGo_r,104,1,4,4,5,{SPACE},Cue,BigSquare.bmp,1,{SPACE},{SPACE},514,145007,GoGoNoGo_r,104,1,4,4,6,,Precued,SmallSquare.bmp,1,,,0,0,No GoGoNoGo_r,104,1,4,4,7,{SPACE},Noncue,BigCircle.bmp,1,{SPACE},{SPACE},326,148818,GoGoNoGo_r,104,1,4,4,8,{SPACE},Noncue,BigCircle.bmp,1,{SPACE},{SPACE},461,150969,GoGoNoGo_r,104,1,4,4,9,,Uncued,SmallSquare.bmp,1,,,0,0,No GoGoNoGo_r,104,1,4,4,10,{SPACE},Noncue,BigCircle.bmp,1,{SPACE},{SPACE},348,154855,GoGoNoGo_r,104,1,5,5,1,{SPACE},Noncue,BigCircle.bmp,1,{SPACE},{SPACE},386,156893,GoGoNoGo_r,104,1,5,5,2,{SPACE},Noncue,BigCircle.bmp,1,{SPACE},{SPACE},232,158738,GoGoNoGo_r,104,1,5,5,3,{SPACE},Cue,BigSquare.bmp,1,{SPACE},{SPACE},526,161048,GoGoNoGo_r,104,1,5,5,4,,Precued,SmallSquare.bmp,0,,{SPACE},298,162820,No GoGoNoGo_r,104,1,5,5,5,{SPACE},Noncue,BigCircle.bmp,1,{SPACE},{SPACE},364,164885,GoGoNoGo_r,104,1,5,5,6,,Uncued,SmallSquare.bmp,1,,,0,0,No GoGoNoGo_r,104,1,5,5,7,{SPACE},Noncue,BigCircle.bmp,1,{SPACE},{SPACE},322,168842,GoGoNoGo_r,104,1,5,5,8,{SPACE},Noncue,BigCircle.bmp,1,{SPACE},{SPACE},310,170830,GoGoNoGo_r,104,1,5,5,9,{SPACE},Cue,BigSquare.bmp,1,{SPACE},{SPACE},330,172866,GoGoNoGo_r,104,1,5,5,10,,Precued,SmallSquare.bmp,1,,,0,0,No GoGoNoGo_r,104,1,6,6,1,{SPACE},Cue,BigSquare.bmp,1,{SPACE},{SPACE},204,176739,GoGoNoGo_r,104,1,6,6,2,{SPACE},Noncue,BigCircle.bmp,1,{SPACE},{SPACE},214,178749,GoGoNoGo_r,104,1,6,6,3,,Uncued,SmallSquare.bmp,0,,{SPACE},219,180753,No GoGoNoGo_r,104,1,6,6,4,{SPACE},Cue,BigSquare.bmp,1,{SPACE},{SPACE},405,182955,GoGoNoGo_r,104,1,6,6,5,,Precued,SmallSquare.bmp,1,,,0,0,No GoGoNoGo_r,104,1,6,6,6,{SPACE},Noncue,BigCircle.bmp,1,{SPACE},{SPACE},284,186833,GoGoNoGo_r,104,1,6,6,7,{SPACE},Cue,BigSquare.bmp,1,{SPACE},{SPACE},438,188987,GoGoNoGo_r,104,1,6,6,8,,Precued,SmallSquare.bmp,1,,,0,0,No GoGoNoGo_r,104,1,6,6,9,{SPACE},Noncue,SmallCircle.bmp,1,{SPACE},{SPACE},297,192861,GoGoNoGo_r,104,1,6,6,10,,Uncued,SmallSquare.bmp,1,,,0,0,No GoGoNoGo_r,104,1,7,7,1,{SPACE},Noncue,BigCircle.bmp,1,{SPACE},{SPACE},326,196889,GoGoNoGo_r,104,1,7,7,2,{SPACE},Cue,BigSquare.bmp,1,{SPACE},{SPACE},415,198978,GoGoNoGo_r,104,1,7,7,3,,Precued,SmallSquare.bmp,1,,,0,0,No GoGoNoGo_r,104,1,7,7,4,{SPACE},Noncue,SmallCircle.bmp,1,{SPACE},{SPACE},195,202757,GoGoNoGo_r,104,1,7,7,5,,Uncued,SmallSquare.bmp,0,,{SPACE},233,204811,No GoGoNoGo_r,104,1,7,7,6,{SPACE},Noncue,BigCircle.bmp,1,{SPACE},{SPACE},429,207007,GoGoNoGo_r,104,1,7,7,7,{SPACE},Noncue,BigCircle.bmp,1,{SPACE},{SPACE},225,208802,GoGoNoGo_r,104,1,7,7,8,{SPACE},Cue,BigSquare.bmp,1,{SPACE},{SPACE},295,210872,GoGoNoGo_r,104,1,7,7,9,,Precued,SmallSquare.bmp,1,,,0,0,No GoGoNoGo_r,104,1,7,7,10,{SPACE},Noncue,BigCircle.bmp,1,{SPACE},{SPACE},219,214811,GoGoNoGo_r,104,1,8,8,1,{SPACE},Noncue,SmallCircle.bmp,1,{SPACE},{SPACE},225,216817,GoGoNoGo_r,104,1,8,8,2,{SPACE},Cue,BigSquare.bmp,1,{SPACE},{SPACE},343,218934,GoGoNoGo_r,104,1,8,8,3,,Precued,SmallSquare.bmp,1,,,0,0,No GoGoNoGo_r,104,1,8,8,4,{SPACE},Noncue,BigCircle.bmp,1,{SPACE},{SPACE},444,223034,GoGoNoGo_r,104,1,8,8,5,{SPACE},Noncue,BigCircle.bmp,1,{SPACE},{SPACE},301,224891,GoGoNoGo_r,104,1,8,8,6,{SPACE},Cue,BigSquare.bmp,1,{SPACE},{SPACE},319,226925,GoGoNoGo_r,104,1,8,8,7,,Precued,SmallSquare.bmp,1,,,0,0,No GoGoNoGo_r,104,1,8,8,8,{SPACE},Noncue,BigCircle.bmp,1,{SPACE},{SPACE},235,230840,GoGoNoGo_r,104,1,8,8,9,,Uncued,SmallSquare.bmp,1,,,0,0,No GoGoNoGo_r,104,1,8,8,10,{SPACE},Noncue,BigCircle.bmp,0,{SPACE},,0,0,GoGoNoGo_r,104,1,9,9,1,{SPACE},Cue,BigSquare.bmp,1,{SPACE},{SPACE},212,236832,GoGoNoGo_r,104,1,9,9,2,{SPACE},Noncue,SmallCircle.bmp,1,{SPACE},{SPACE},650,239270,GoGoNoGo_r,104,1,9,9,3,{SPACE},Noncue,BigCircle.bmp,1,{SPACE},{SPACE},256,240875,GoGoNoGo_r,104,1,9,9,4,{SPACE},Cue,BigSquare.bmp,1,{SPACE},{SPACE},324,242943,GoGoNoGo_r,104,1,9,9,5,,Precued,SmallSquare.bmp,1,,,0,0,No GoGoNoGo_r,104,1,9,9,6,{SPACE},Cue,BigSquare.bmp,1,{SPACE},{SPACE},329,246963,GoGoNoGo_r,104,1,9,9,7,,Precued,SmallSquare.bmp,1,,,0,0,No GoGoNoGo_r,104,1,9,9,8,{SPACE},Noncue,BigCircle.bmp,1,{SPACE},{SPACE},288,250921,GoGoNoGo_r,104,1,9,9,9,,Uncued,SmallSquare.bmp,1,,,0,0,No GoGoNoGo_r,104,1,9,9,10,{SPACE},Noncue,BigCircle.bmp,1,{SPACE},{SPACE},275,254907,GoGoNoGo_r,104,1,10,10,1,{SPACE},Noncue,BigCircle.bmp,1,{SPACE},{SPACE},262,256894,GoGoNoGo_r,104,1,10,10,2,{SPACE},Cue,BigSquare.bmp,1,{SPACE},{SPACE},233,258881,GoGoNoGo_r,104,1,10,10,3,,Precued,SmallSquare.bmp,1,,,0,0,No GoGoNoGo_r,104,1,10,10,4,{SPACE},Cue,BigSquare.bmp,1,{SPACE},{SPACE},410,263057,GoGoNoGo_r,104,1,10,10,5,,Precued,SmallSquare.bmp,1,,,0,0,No GoGoNoGo_r,104,1,10,10,6,{SPACE},Noncue,BigCircle.bmp,1,{SPACE},{SPACE},363,267009,GoGoNoGo_r,104,1,10,10,7,{SPACE},Cue,BigSquare.bmp,1,{SPACE},{SPACE},348,269010,GoGoNoGo_r,104,1,10,10,8,,Precued,SmallSquare.bmp,1,,,0,0,No GoGoNoGo_r,104,1,10,10,9,{SPACE},Noncue,BigCircle.bmp,1,{SPACE},{SPACE},263,272924,GoGoNoGo_r,104,1,10,10,10,,Uncued,SmallSquare.bmp,1,,,0,0,No GoGoNoGo_r,104,1,11,11,1,{SPACE},Cue,BigSquare.bmp,1,{SPACE},{SPACE},236,276896,GoGoNoGo_r,104,1,11,11,2,,Precued,SmallSquare.bmp,1,,,0,0,No GoGoNoGo_r,104,1,11,11,3,{SPACE},Noncue,BigCircle.bmp,1,{SPACE},{SPACE},224,280900,GoGoNoGo_r,104,1,11,11,4,,Uncued,SmallSquare.bmp,1,,,0,0,No GoGoNoGo_r,104,1,11,11,5,{SPACE},Noncue,BigCircle.bmp,1,{SPACE},{SPACE},220,284895,GoGoNoGo_r,104,1,11,11,6,{SPACE},Noncue,SmallCircle.bmp,0,{SPACE},,0,0,GoGoNoGo_r,104,1,11,11,7,{SPACE},Cue,BigSquare.bmp,1,{SPACE},{SPACE},301,288975,GoGoNoGo_r,104,1,11,11,8,,Precued,SmallSquare.bmp,0,,{SPACE},263,290953,No GoGoNoGo_r,104,1,11,11,9,{SPACE},Noncue,BigCircle.bmp,1,{SPACE},{SPACE},361,293050,GoGoNoGo_r,104,1,11,11,10,,Uncued,SmallSquare.bmp,0,,{SPACE},187,294876,No GoGoNoGo_r,104,1,12,12,1,{SPACE},Noncue,SmallCircle.bmp,1,{SPACE},{SPACE},414,297103,GoGoNoGo_r,104,1,12,12,2,{SPACE},Cue,BigSquare.bmp,1,{SPACE},{SPACE},347,299035,GoGoNoGo_r,104,1,12,12,3,,Precued,SmallSquare.bmp,1,,,0,0,No GoGoNoGo_r,104,1,12,12,4,{SPACE},Cue,BigSquare.bmp,1,{SPACE},{SPACE},220,302924,GoGoNoGo_r,104,1,12,12,5,{SPACE},Noncue,BigCircle.bmp,1,{SPACE},{SPACE},364,305067,GoGoNoGo_r,104,1,12,12,6,{SPACE},Cue,BigSquare.bmp,1,{SPACE},{SPACE},424,307127,GoGoNoGo_r,104,1,12,12,7,,Precued,SmallSquare.bmp,1,,,0,0,No GoGoNoGo_r,104,1,12,12,8,{SPACE},Noncue,BigCircle.bmp,1,{SPACE},{SPACE},256,310974,GoGoNoGo_r,104,1,12,12,9,,Uncued,SmallSquare.bmp,1,,,0,0,No GoGoNoGo_r,104,1,12,12,10,{SPACE},Noncue,BigCircle.bmp,1,{SPACE},{SPACE},189,314906,GoGoNoGo_r,104,1,13,13,1,{SPACE},Cue,BigSquare.bmp,1,{SPACE},{SPACE},229,316946,GoGoNoGo_r,104,1,13,13,2,,Precued,SmallSquare.bmp,1,,,0,0,No GoGoNoGo_r,104,1,13,13,3,{SPACE},Noncue,BigCircle.bmp,1,{SPACE},{SPACE},170,320886,GoGoNoGo_r,104,1,13,13,4,,Uncued,SmallSquare.bmp,0,,{SPACE},244,322976,No GoGoNoGo_r,104,1,13,13,5,{SPACE},Noncue,BigCircle.bmp,1,{SPACE},{SPACE},305,325037,GoGoNoGo_r,104,1,13,13,6,{SPACE},Cue,BigSquare.bmp,1,{SPACE},{SPACE},235,326966,GoGoNoGo_r,104,1,13,13,7,,Precued,SmallSquare.bmp,0,,{SPACE},196,328927,No GoGoNoGo_r,104,1,13,13,8,{SPACE},Noncue,BigCircle.bmp,1,{SPACE},{SPACE},420,331150,GoGoNoGo_r,104,1,13,13,9,{SPACE},Noncue,SmallCircle.bmp,1,{SPACE},{SPACE},462,333208,GoGoNoGo_r,104,1,13,13,10,{SPACE},Noncue,BigCircle.bmp,1,{SPACE},{SPACE},242,334988,GoGoNoGo_r,104,1,14,14,1,,Uncued,SmallSquare.bmp,1,,,0,0,No GoGoNoGo_r,104,1,14,14,2,{SPACE},Noncue,BigCircle.bmp,1,{SPACE},{SPACE},207,338952,GoGoNoGo_r,104,1,14,14,3,{SPACE},Cue,BigSquare.bmp,1,{SPACE},{SPACE},225,340969,GoGoNoGo_r,104,1,14,14,4,,Precued,SmallSquare.bmp,0,,{SPACE},216,342976,No GoGoNoGo_r,104,1,14,14,5,{SPACE},Noncue,BigCircle.bmp,1,{SPACE},{SPACE},224,344984,GoGoNoGo_r,104,1,14,14,6,{SPACE},Cue,BigSquare.bmp,1,{SPACE},{SPACE},328,347087,GoGoNoGo_r,104,1,14,14,7,,Precued,SmallSquare.bmp,1,,,0,0,No GoGoNoGo_r,104,1,14,14,8,{SPACE},Noncue,BigCircle.bmp,1,{SPACE},{SPACE},370,351128,GoGoNoGo_r,104,1,14,14,9,{SPACE},Noncue,SmallCircle.bmp,0,{SPACE},,0,0,GoGoNoGo_r,104,1,14,14,10,{SPACE},Noncue,BigCircle.bmp,1,{SPACE},{SPACE},159,354933,GoGoNoGo_r,104,1,15,15,1,{SPACE},Cue,BigSquare.bmp,1,{SPACE},{SPACE},343,357117,GoGoNoGo_r,104,1,15,15,2,,Precued,SmallSquare.bmp,1,,,0,0,No GoGoNoGo_r,104,1,15,15,3,{SPACE},Noncue,BigCircle.bmp,1,{SPACE},{SPACE},213,360986,GoGoNoGo_r,104,1,15,15,4,,Uncued,SmallSquare.bmp,1,,,0,0,No GoGoNoGo_r,104,1,15,15,5,{SPACE},Noncue,BigCircle.bmp,1,{SPACE},{SPACE},211,364999,GoGoNoGo_r,104,1,15,15,6,{SPACE},Cue,BigSquare.bmp,1,{SPACE},{SPACE},545,367333,GoGoNoGo_r,104,1,15,15,7,,Precued,SmallSquare.bmp,0,,{SPACE},243,369030,No GoGoNoGo_r,104,1,15,15,8,{SPACE},Noncue,BigCircle.bmp,1,{SPACE},{SPACE},301,371088,GoGoNoGo_r,104,1,15,15,9,{SPACE},Cue,BigSquare.bmp,1,{SPACE},{SPACE},330,373116,GoGoNoGo_r,104,1,15,15,10,{SPACE},Noncue,BigCircle.bmp,1,{SPACE},{SPACE},328,375114,GoGoNoGo_r,104,1,16,16,1,{SPACE},Noncue,SmallCircle.bmp,1,{SPACE},{SPACE},479,377281,GoGoNoGo_r,104,1,16,16,2,,Uncued,SmallSquare.bmp,1,,,0,0,No GoGoNoGo_r,104,1,16,16,3,{SPACE},Cue,BigSquare.bmp,1,{SPACE},{SPACE},236,381037,GoGoNoGo_r,104,1,16,16,4,,Precued,SmallSquare.bmp,0,,{SPACE},317,383117,No GoGoNoGo_r,104,1,16,16,5,{SPACE},Noncue,BigCircle.bmp,1,{SPACE},{SPACE},385,385185,GoGoNoGo_r,104,1,16,16,6,{SPACE},Noncue,BigCircle.bmp,1,{SPACE},{SPACE},263,387079,GoGoNoGo_r,104,1,16,16,7,{SPACE},Cue,BigSquare.bmp,1,{SPACE},{SPACE},516,389332,GoGoNoGo_r,104,1,16,16,8,,Precued,SmallSquare.bmp,1,,,0,0,No GoGoNoGo_r,104,1,16,16,9,{SPACE},Noncue,BigCircle.bmp,1,{SPACE},{SPACE},248,393063,GoGoNoGo_r,104,1,16,16,10,{SPACE},Noncue,SmallCircle.bmp,1,{SPACE},{SPACE},625,395439,GoGoNoGo_r,104,1,17,17,1,{SPACE},Noncue,BigCircle.bmp,1,{SPACE},{SPACE},207,397037,GoGoNoGo_r,104,1,17,17,2,,Uncued,SmallSquare.bmp,0,,{SPACE},322,399152,No GoGoNoGo_r,104,1,17,17,3,{SPACE},Noncue,SmallCircle.bmp,1,{SPACE},{SPACE},243,401072,GoGoNoGo_r,104,1,17,17,4,{SPACE},Cue,BigSquare.bmp,1,{SPACE},{SPACE},212,403041,GoGoNoGo_r,104,1,17,17,5,,Precued,SmallSquare.bmp,1,,,0,0,No GoGoNoGo_r,104,1,17,17,6,{SPACE},Cue,BigSquare.bmp,1,{SPACE},{SPACE},197,407025,GoGoNoGo_r,104,1,17,17,7,,Precued,SmallSquare.bmp,0,,{SPACE},216,409060,No GoGoNoGo_r,104,1,17,17,8,{SPACE},Noncue,BigCircle.bmp,1,{SPACE},{SPACE},634,411477,GoGoNoGo_r,104,1,17,17,9,{SPACE},Noncue,SmallCircle.bmp,1,{SPACE},{SPACE},436,413279,GoGoNoGo_r,104,1,17,17,10,{SPACE},Noncue,BigCircle.bmp,1,{SPACE},{SPACE},306,415148,GoGoNoGo_r,104,1,18,18,1,{SPACE},Cue,BigSquare.bmp,1,{SPACE},{SPACE},509,417351,GoGoNoGo_r,104,1,18,18,2,,Precued,SmallSquare.bmp,1,,,0,0,No GoGoNoGo_r,104,1,18,18,3,{SPACE},Noncue,BigCircle.bmp,1,{SPACE},{SPACE},410,421268,GoGoNoGo_r,104,1,18,18,4,,Uncued,SmallSquare.bmp,1,,,0,0,No GoGoNoGo_r,104,1,18,18,5,{SPACE},Cue,BigSquare.bmp,0,{SPACE},,0,0,GoGoNoGo_r,104,1,18,18,6,{SPACE},Noncue,BigCircle.bmp,1,{SPACE},{SPACE},297,427153,GoGoNoGo_r,104,1,18,18,7,{SPACE},Noncue,SmallCircle.bmp,1,{SPACE},{SPACE},259,429131,GoGoNoGo_r,104,1,18,18,8,{SPACE},Cue,BigSquare.bmp,1,{SPACE},{SPACE},236,431108,GoGoNoGo_r,104,1,18,18,9,,Precued,SmallSquare.bmp,0,,{SPACE},283,433154,No GoGoNoGo_r,104,1,18,18,10,{SPACE},Noncue,BigCircle.bmp,1,{SPACE},{SPACE},241,435112,GoGoNoGo_r,104,1,19,19,1,,Uncued,SmallSquare.bmp,0,,{SPACE},243,437113,No GoGoNoGo_r,104,1,19,19,2,{SPACE},Noncue,BigCircle.bmp,1,{SPACE},{SPACE},389,439259,GoGoNoGo_r,104,1,19,19,3,{SPACE},Noncue,BigCircle.bmp,1,{SPACE},{SPACE},225,441111,GoGoNoGo_r,104,1,19,19,4,{SPACE},Cue,BigSquare.bmp,1,{SPACE},{SPACE},344,443230,GoGoNoGo_r,104,1,19,19,5,,Precued,SmallSquare.bmp,0,,{SPACE},325,445210,No GoGoNoGo_r,104,1,19,19,6,{SPACE},Cue,BigSquare.bmp,1,{SPACE},{SPACE},353,447238,GoGoNoGo_r,104,1,19,19,7,,Precued,SmallSquare.bmp,1,,,0,0,No GoGoNoGo_r,104,1,19,19,8,{SPACE},Noncue,BigCircle.bmp,1,{SPACE},{SPACE},256,451156,GoGoNoGo_r,104,1,19,19,9,{SPACE},Noncue,BigCircle.bmp,1,{SPACE},{SPACE},363,453263,GoGoNoGo_r,104,1,19,19,10,{SPACE},Noncue,BigCircle.bmp,1,{SPACE},{SPACE},345,455244,GoGoNoGo_r,104,2,1,1,,,,,,,,,,GoNoGo_r,104,2,2,2,1,{SPACE},Cue,BigSquare.bmp,1,{SPACE},{SPACE},475,67686,GoGoNoGo_r,104,2,2,2,2,,Precued,SmallSquare.bmp,0,,{SPACE},322,69532,No GoGoNoGo_r,104,2,2,2,3,{SPACE},Noncue,BigCircle.bmp,1,{SPACE},{SPACE},368,71578,GoGoNoGo_r,104,2,2,2,4,{SPACE},Noncue,SmallCircle.bmp,1,{SPACE},{SPACE},581,73790,GoGoNoGo_r,104,2,2,2,5,{SPACE},Cue,BigSquare.bmp,1,{SPACE},{SPACE},269,75494,GoGoNoGo_r,104,2,2,2,6,,Precued,SmallSquare.bmp,1,,,0,0,No GoGoNoGo_r,104,2,2,2,7,{SPACE},Noncue,BigCircle.bmp,1,{SPACE},{SPACE},202,79426,GoGoNoGo_r,104,2,2,2,8,,Uncued,SmallSquare.bmp,0,,{SPACE},259,81483,No GoGoNoGo_r,104,2,2,2,9,{SPACE},Noncue,BigCircle.bmp,1,{SPACE},{SPACE},420,83643,GoGoNoGo_r,104,2,2,2,10,{SPACE},Noncue,BigCircle.bmp,1,{SPACE},{SPACE},505,85744,GoGoNoGo_r,104,2,3,3,1,{SPACE},Noncue,BigCircle.bmp,1,{SPACE},{SPACE},710,87949,GoGoNoGo_r,104,2,3,3,2,,Uncued,SmallSquare.bmp,0,,{SPACE},383,89621,No GoGoNoGo_r,104,2,3,3,3,{SPACE},Cue,BigSquare.bmp,1,{SPACE},{SPACE},801,92039,GoGoNoGo_r,104,2,3,3,4,,Precued,SmallSquare.bmp,1,,,0,0,No GoGoNoGo_r,104,2,3,3,5,{SPACE},Noncue,SmallCircle.bmp,1,{SPACE},{SPACE},238,95491,GoGoNoGo_r,104,2,3,3,6,{SPACE},Cue,BigSquare.bmp,1,{SPACE},{SPACE},240,97493,GoGoNoGo_r,104,2,3,3,7,,Precued,SmallSquare.bmp,1,,,0,0,No GoGoNoGo_r,104,2,3,3,8,{SPACE},Noncue,BigCircle.bmp,1,{SPACE},{SPACE},151,101403,GoGoNoGo_r,104,2,3,3,9,{SPACE},Cue,BigSquare.bmp,1,{SPACE},{SPACE},328,103579,GoGoNoGo_r,104,2,3,3,10,{SPACE},Noncue,BigCircle.bmp,1,{SPACE},{SPACE},553,105804,GoGoNoGo_r,104,2,4,4,1,{SPACE},Noncue,SmallCircle.bmp,1,{SPACE},{SPACE},267,107534,GoGoNoGo_r,104,2,4,4,2,{SPACE},Cue,BigSquare.bmp,1,{SPACE},{SPACE},277,109543,GoGoNoGo_r,104,2,4,4,3,,Precued,SmallSquare.bmp,1,,,0,0,No GoGoNoGo_r,104,2,4,4,4,{SPACE},Noncue,BigCircle.bmp,1,{SPACE},{SPACE},216,113481,GoGoNoGo_r,104,2,4,4,5,{SPACE},Cue,BigSquare.bmp,1,{SPACE},{SPACE},1441,116706,GoGoNoGo_r,104,2,4,4,6,,Precued,SmallSquare.bmp,0,,{SPACE},862,118143,No GoGoNoGo_r,104,2,4,4,7,{SPACE},Noncue,BigCircle.bmp,1,{SPACE},{SPACE},573,119854,GoGoNoGo_r,104,2,4,4,8,{SPACE},Noncue,BigCircle.bmp,1,{SPACE},{SPACE},553,121833,GoGoNoGo_r,104,2,4,4,9,,Uncued,SmallSquare.bmp,1,,,0,0,No GoGoNoGo_r,104,2,4,4,10,{SPACE},Noncue,BigCircle.bmp,1,{SPACE},{SPACE},208,125487,GoGoNoGo_r,104,2,5,5,1,{SPACE},Noncue,BigCircle.bmp,0,{SPACE},,0,0,GoGoNoGo_r,104,2,5,5,2,{SPACE},Noncue,BigCircle.bmp,1,{SPACE},{SPACE},673,129968,GoGoNoGo_r,104,2,5,5,3,{SPACE},Cue,BigSquare.bmp,1,{SPACE},{SPACE},365,131659,GoGoNoGo_r,104,2,5,5,4,,Precued,SmallSquare.bmp,0,,{SPACE},205,133499,No GoGoNoGo_r,104,2,5,5,5,{SPACE},Noncue,BigCircle.bmp,1,{SPACE},{SPACE},250,135543,GoGoNoGo_r,104,2,5,5,6,,Uncued,SmallSquare.bmp,1,,,0,0,No GoGoNoGo_r,104,2,5,5,7,{SPACE},Noncue,BigCircle.bmp,1,{SPACE},{SPACE},262,139571,GoGoNoGo_r,104,2,5,5,8,{SPACE},Noncue,BigCircle.bmp,1,{SPACE},{SPACE},339,141647,GoGoNoGo_r,104,2,5,5,9,{SPACE},Cue,BigSquare.bmp,1,{SPACE},{SPACE},401,143709,GoGoNoGo_r,104,2,5,5,10,,Precued,SmallSquare.bmp,1,,,0,0,No GoGoNoGo_r,104,2,6,6,1,{SPACE},Cue,BigSquare.bmp,1,{SPACE},{SPACE},152,147475,GoGoNoGo_r,104,2,6,6,2,{SPACE},Noncue,BigCircle.bmp,1,{SPACE},{SPACE},230,149553,GoGoNoGo_r,104,2,6,6,3,,Uncued,SmallSquare.bmp,0,,{SPACE},214,151536,No GoGoNoGo_r,104,2,6,6,4,{SPACE},Cue,BigSquare.bmp,1,{SPACE},{SPACE},223,153545,GoGoNoGo_r,104,2,6,6,5,,Precued,SmallSquare.bmp,1,,,0,0,No GoGoNoGo_r,104,2,6,6,6,{SPACE},Noncue,BigCircle.bmp,1,{SPACE},{SPACE},234,157555,GoGoNoGo_r,104,2,6,6,7,{SPACE},Cue,BigSquare.bmp,1,{SPACE},{SPACE},599,159936,GoGoNoGo_r,104,2,6,6,8,,Precued,SmallSquare.bmp,1,,,0,0,No GoGoNoGo_r,104,2,6,6,9,{SPACE},Noncue,SmallCircle.bmp,1,{SPACE},{SPACE},237,163573,GoGoNoGo_r,104,2,6,6,10,,Uncued,SmallSquare.bmp,1,,,0,0,No GoGoNoGo_r,104,2,7,7,1,{SPACE},Noncue,BigCircle.bmp,1,{SPACE},{SPACE},210,167545,GoGoNoGo_r,104,2,7,7,2,{SPACE},Cue,BigSquare.bmp,1,{SPACE},{SPACE},260,169611,GoGoNoGo_r,104,2,7,7,3,,Precued,SmallSquare.bmp,1,,,0,0,No GoGoNoGo_r,104,2,7,7,4,{SPACE},Noncue,SmallCircle.bmp,1,{SPACE},{SPACE},101,173451,GoGoNoGo_r,104,2,7,7,5,,Uncued,SmallSquare.bmp,0,,{SPACE},283,175633,No GoGoNoGo_r,104,2,7,7,6,{SPACE},Noncue,BigCircle.bmp,1,{SPACE},{SPACE},273,177622,GoGoNoGo_r,104,2,7,7,7,{SPACE},Noncue,BigCircle.bmp,0,{SPACE},,0,0,GoGoNoGo_r,104,2,7,7,8,{SPACE},Cue,BigSquare.bmp,1,{SPACE},{SPACE},483,181848,GoGoNoGo_r,104,2,7,7,9,,Precued,SmallSquare.bmp,1,,,0,0,No GoGoNoGo_r,104,2,7,7,10,{SPACE},Noncue,BigCircle.bmp,1,{SPACE},{SPACE},177,185541,GoGoNoGo_r,104,2,8,8,1,{SPACE},Noncue,SmallCircle.bmp,1,{SPACE},{SPACE},897,188260,GoGoNoGo_r,104,2,8,8,2,{SPACE},Cue,BigSquare.bmp,1,{SPACE},{SPACE},519,189898,GoGoNoGo_r,104,2,8,8,3,,Precued,SmallSquare.bmp,0,,{SPACE},215,191594,No GoGoNoGo_r,104,2,8,8,4,{SPACE},Noncue,BigCircle.bmp,1,{SPACE},{SPACE},255,193633,GoGoNoGo_r,104,2,8,8,5,{SPACE},Noncue,BigCircle.bmp,1,{SPACE},{SPACE},399,195777,GoGoNoGo_r,104,2,8,8,6,{SPACE},Cue,BigSquare.bmp,1,{SPACE},{SPACE},415,197792,GoGoNoGo_r,104,2,8,8,7,,Precued,SmallSquare.bmp,1,,,0,0,No GoGoNoGo_r,104,2,8,8,8,{SPACE},Noncue,BigCircle.bmp,1,{SPACE},{SPACE},281,201674,GoGoNoGo_r,104,2,8,8,9,,Uncued,SmallSquare.bmp,1,,,0,0,No GoGoNoGo_r,104,2,8,8,10,{SPACE},Noncue,BigCircle.bmp,0,{SPACE},,0,0,GoGoNoGo_r,104,2,9,9,1,{SPACE},Cue,BigSquare.bmp,1,{SPACE},{SPACE},662,208053,GoGoNoGo_r,104,2,9,9,2,{SPACE},Noncue,SmallCircle.bmp,1,{SPACE},{SPACE},628,210019,GoGoNoGo_r,104,2,9,9,3,{SPACE},Noncue,BigCircle.bmp,1,{SPACE},{SPACE},207,211614,GoGoNoGo_r,104,2,9,9,4,{SPACE},Cue,BigSquare.bmp,1,{SPACE},{SPACE},382,213788,GoGoNoGo_r,104,2,9,9,5,,Precued,SmallSquare.bmp,0,,{SPACE},273,215679,No GoGoNoGo_r,104,2,9,9,6,{SPACE},Cue,BigSquare.bmp,1,{SPACE},{SPACE},655,218060,GoGoNoGo_r,104,2,9,9,7,,Precued,SmallSquare.bmp,0,,{SPACE},1664,221069,No GoGoNoGo_r,104,2,9,9,8,{SPACE},Noncue,BigCircle.bmp,0,{SPACE},,0,0,GoGoNoGo_r,104,2,9,9,9,,Uncued,SmallSquare.bmp,1,,,0,0,No GoGoNoGo_r,104,2,9,9,10,{SPACE},Noncue,BigCircle.bmp,1,{SPACE},{SPACE},218,225638,GoGoNoGo_r,104,2,10,10,1,{SPACE},Noncue,BigCircle.bmp,1,{SPACE},{SPACE},263,227683,GoGoNoGo_r,104,2,10,10,2,{SPACE},Cue,BigSquare.bmp,1,{SPACE},{SPACE},217,229636,GoGoNoGo_r,104,2,10,10,3,,Precued,SmallSquare.bmp,0,,{SPACE},322,231757,No GoGoNoGo_r,104,2,10,10,4,{SPACE},Cue,BigSquare.bmp,1,{SPACE},{SPACE},261,233696,GoGoNoGo_r,104,2,10,10,5,,Precued,SmallSquare.bmp,1,,,0,0,No GoGoNoGo_r,104,2,10,10,6,{SPACE},Noncue,BigCircle.bmp,1,{SPACE},{SPACE},237,237671,GoGoNoGo_r,104,2,10,10,7,{SPACE},Cue,BigSquare.bmp,1,{SPACE},{SPACE},319,239752,GoGoNoGo_r,104,2,10,10,8,,Precued,SmallSquare.bmp,1,,,0,0,No GoGoNoGo_r,104,2,10,10,9,{SPACE},Noncue,BigCircle.bmp,0,{SPACE},,0,0,GoGoNoGo_r,104,2,10,10,10,,Uncued,SmallSquare.bmp,1,,,0,0,No GoGoNoGo_r,104,2,11,11,1,{SPACE},Cue,BigSquare.bmp,1,{SPACE},{SPACE},169,247617,GoGoNoGo_r,104,2,11,11,2,,Precued,SmallSquare.bmp,0,,{SPACE},183,249630,No GoGoNoGo_r,104,2,11,11,3,{SPACE},Noncue,BigCircle.bmp,1,{SPACE},{SPACE},396,251859,GoGoNoGo_r,104,2,11,11,4,,Uncued,SmallSquare.bmp,0,,{SPACE},584,254047,No GoGoNoGo_r,104,2,11,11,5,{SPACE},Noncue,BigCircle.bmp,1,{SPACE},{SPACE},448,255910,GoGoNoGo_r,104,2,11,11,6,{SPACE},Noncue,SmallCircle.bmp,1,{SPACE},{SPACE},204,257666,GoGoNoGo_r,104,2,11,11,7,{SPACE},Cue,BigSquare.bmp,1,{SPACE},{SPACE},301,259762,GoGoNoGo_r,104,2,11,11,8,,Precued,SmallSquare.bmp,1,,,0,0,No GoGoNoGo_r,104,2,11,11,9,{SPACE},Noncue,BigCircle.bmp,1,{SPACE},{SPACE},220,263697,GoGoNoGo_r,104,2,11,11,10,,Uncued,SmallSquare.bmp,1,,,0,0,No GoGoNoGo_r,104,2,12,12,1,{SPACE},Noncue,SmallCircle.bmp,1,{SPACE},{SPACE},214,267690,GoGoNoGo_r,104,2,12,12,2,{SPACE},Cue,BigSquare.bmp,1,{SPACE},{SPACE},168,269643,GoGoNoGo_r,104,2,12,12,3,,Precued,SmallSquare.bmp,0,,{SPACE},258,271733,No GoGoNoGo_r,104,2,12,12,4,{SPACE},Cue,BigSquare.bmp,1,{SPACE},{SPACE},265,273756,GoGoNoGo_r,104,2,12,12,5,{SPACE},Noncue,BigCircle.bmp,1,{SPACE},{SPACE},274,275765,GoGoNoGo_r,104,2,12,12,6,{SPACE},Cue,BigSquare.bmp,1,{SPACE},{SPACE},263,277753,GoGoNoGo_r,104,2,12,12,7,,Precued,SmallSquare.bmp,0,,{SPACE},246,279736,No GoGoNoGo_r,104,2,12,12,8,{SPACE},Noncue,BigCircle.bmp,1,{SPACE},{SPACE},255,281744,GoGoNoGo_r,104,2,12,12,9,,Uncued,SmallSquare.bmp,0,,{SPACE},234,283739,No GoGoNoGo_r,104,2,12,12,10,{SPACE},Noncue,BigCircle.bmp,0,{SPACE},,0,0,GoGoNoGo_r,104,2,13,13,1,{SPACE},Cue,BigSquare.bmp,1,{SPACE},{SPACE},279,287783,GoGoNoGo_r,104,2,13,13,2,,Precued,SmallSquare.bmp,0,,{SPACE},231,289735,No GoGoNoGo_r,104,2,13,13,3,{SPACE},Noncue,BigCircle.bmp,1,{SPACE},{SPACE},407,291910,GoGoNoGo_r,104,2,13,13,4,,Uncued,SmallSquare.bmp,1,,,0,0,No GoGoNoGo_r,104,2,13,13,5,{SPACE},Noncue,BigCircle.bmp,1,{SPACE},{SPACE},280,295799,GoGoNoGo_r,104,2,13,13,6,{SPACE},Cue,BigSquare.bmp,1,{SPACE},{SPACE},410,297928,GoGoNoGo_r,104,2,13,13,7,,Precued,SmallSquare.bmp,1,,,0,0,No GoGoNoGo_r,104,2,13,13,8,{SPACE},Noncue,BigCircle.bmp,1,{SPACE},{SPACE},232,301749,GoGoNoGo_r,104,2,13,13,9,{SPACE},Noncue,SmallCircle.bmp,1,{SPACE},{SPACE},672,304205,GoGoNoGo_r,104,2,13,13,10,{SPACE},Noncue,BigCircle.bmp,1,{SPACE},{SPACE},580,306113,GoGoNoGo_r,104,2,14,14,1,,Uncued,SmallSquare.bmp,1,,,0,0,No GoGoNoGo_r,104,2,14,14,2,{SPACE},Noncue,BigCircle.bmp,1,{SPACE},{SPACE},190,309722,GoGoNoGo_r,104,2,14,14,3,{SPACE},Cue,BigSquare.bmp,1,{SPACE},{SPACE},416,311947,GoGoNoGo_r,104,2,14,14,4,,Precued,SmallSquare.bmp,0,,{SPACE},211,313742,No GoGoNoGo_r,104,2,14,14,5,{SPACE},Noncue,BigCircle.bmp,1,{SPACE},{SPACE},893,316440,GoGoNoGo_r,104,2,14,14,6,{SPACE},Cue,BigSquare.bmp,1,{SPACE},{SPACE},424,317970,GoGoNoGo_r,104,2,14,14,7,,Precued,SmallSquare.bmp,0,,{SPACE},231,319777,No GoGoNoGo_r,104,2,14,14,8,{SPACE},Noncue,BigCircle.bmp,1,{SPACE},{SPACE},324,321869,GoGoNoGo_r,104,2,14,14,9,{SPACE},Noncue,SmallCircle.bmp,1,{SPACE},{SPACE},578,324123,GoGoNoGo_r,104,2,14,14,10,{SPACE},Noncue,BigCircle.bmp,1,{SPACE},{SPACE},292,325853,GoGoNoGo_r,104,2,15,15,1,{SPACE},Cue,BigSquare.bmp,1,{SPACE},{SPACE},422,327983,GoGoNoGo_r,104,2,15,15,2,,Precued,SmallSquare.bmp,1,,,0,0,No GoGoNoGo_r,104,2,15,15,3,{SPACE},Noncue,BigCircle.bmp,1,{SPACE},{SPACE},203,331762,GoGoNoGo_r,104,2,15,15,4,,Uncued,SmallSquare.bmp,1,,,0,0,No GoGoNoGo_r,104,2,15,15,5,{SPACE},Noncue,BigCircle.bmp,1,{SPACE},{SPACE},183,335758,GoGoNoGo_r,104,2,15,15,6,{SPACE},Cue,BigSquare.bmp,1,{SPACE},{SPACE},301,337876,GoGoNoGo_r,104,2,15,15,7,,Precued,SmallSquare.bmp,0,,{SPACE},347,339921,No GoGoNoGo_r,104,2,15,15,8,{SPACE},Noncue,BigCircle.bmp,1,{SPACE},{SPACE},519,342093,GoGoNoGo_r,104,2,15,15,9,{SPACE},Cue,BigSquare.bmp,1,{SPACE},{SPACE},532,344105,GoGoNoGo_r,104,2,15,15,10,{SPACE},Noncue,BigCircle.bmp,1,{SPACE},{SPACE},271,345860,GoGoNoGo_r,104,2,16,16,1,{SPACE},Noncue,SmallCircle.bmp,1,{SPACE},{SPACE},249,347838,GoGoNoGo_r,104,2,16,16,2,,Uncued,SmallSquare.bmp,0,,{SPACE},825,350413,No GoGoNoGo_r,104,2,16,16,3,{SPACE},Cue,BigSquare.bmp,1,{SPACE},{SPACE},216,351804,GoGoNoGo_r,104,2,16,16,4,,Precued,SmallSquare.bmp,0,,{SPACE},236,353823,No GoGoNoGo_r,104,2,16,16,5,{SPACE},Noncue,BigCircle.bmp,1,{SPACE},{SPACE},245,355848,GoGoNoGo_r,104,2,16,16,6,{SPACE},Noncue,BigCircle.bmp,1,{SPACE},{SPACE},257,357860,GoGoNoGo_r,104,2,16,16,7,{SPACE},Cue,BigSquare.bmp,1,{SPACE},{SPACE},281,359883,GoGoNoGo_r,104,2,16,16,8,,Precued,SmallSquare.bmp,0,,{SPACE},311,361913,No GoGoNoGo_r,104,2,16,16,9,{SPACE},Noncue,BigCircle.bmp,1,{SPACE},{SPACE},230,363831,GoGoNoGo_r,104,2,16,16,10,{SPACE},Noncue,SmallCircle.bmp,0,{SPACE},,0,0,GoGoNoGo_r,104,2,17,17,1,{SPACE},Noncue,BigCircle.bmp,1,{SPACE},{SPACE},282,367899,GoGoNoGo_r,104,2,17,17,2,,Uncued,SmallSquare.bmp,1,,,0,0,No GoGoNoGo_r,104,2,17,17,3,{SPACE},Noncue,SmallCircle.bmp,1,{SPACE},{SPACE},105,371721,GoGoNoGo_r,104,2,17,17,4,{SPACE},Cue,BigSquare.bmp,1,{SPACE},{SPACE},324,373939,GoGoNoGo_r,104,2,17,17,5,,Precued,SmallSquare.bmp,0,,{SPACE},309,375924,No GoGoNoGo_r,104,2,17,17,6,{SPACE},Cue,BigSquare.bmp,0,{SPACE},,0,0,GoGoNoGo_r,104,2,17,17,7,,Precued,SmallSquare.bmp,1,,,0,0,No GoGoNoGo_r,104,2,17,17,8,{SPACE},Noncue,BigCircle.bmp,1,{SPACE},{SPACE},320,381950,GoGoNoGo_r,104,2,17,17,9,{SPACE},Noncue,SmallCircle.bmp,1,{SPACE},{SPACE},525,384154,GoGoNoGo_r,104,2,17,17,10,{SPACE},Noncue,BigCircle.bmp,1,{SPACE},{SPACE},413,386042,GoGoNoGo_r,104,2,18,18,1,{SPACE},Cue,BigSquare.bmp,1,{SPACE},{SPACE},466,388111,GoGoNoGo_r,104,2,18,18,2,,Precued,SmallSquare.bmp,1,,,0,0,No GoGoNoGo_r,104,2,18,18,3,{SPACE},Noncue,BigCircle.bmp,1,{SPACE},{SPACE},200,391844,GoGoNoGo_r,104,2,18,18,4,,Uncued,SmallSquare.bmp,0,,{SPACE},221,393865,No GoGoNoGo_r,104,2,18,18,5,{SPACE},Cue,BigSquare.bmp,1,{SPACE},{SPACE},373,396016,GoGoNoGo_r,104,2,18,18,6,{SPACE},Noncue,BigCircle.bmp,1,{SPACE},{SPACE},215,397874,GoGoNoGo_r,104,2,18,18,7,{SPACE},Noncue,SmallCircle.bmp,1,{SPACE},{SPACE},616,400275,GoGoNoGo_r,104,2,18,18,8,{SPACE},Cue,BigSquare.bmp,1,{SPACE},{SPACE},362,402020,GoGoNoGo_r,104,2,18,18,9,,Precued,SmallSquare.bmp,0,,{SPACE},305,403963,No GoGoNoGo_r,104,2,18,18,10,{SPACE},Noncue,BigCircle.bmp,1,{SPACE},{SPACE},244,405901,GoGoNoGo_r,104,2,19,19,1,,Uncued,SmallSquare.bmp,1,,,0,0,No GoGoNoGo_r,104,2,19,19,2,{SPACE},Noncue,BigCircle.bmp,1,{SPACE},{SPACE},185,409858,GoGoNoGo_r,104,2,19,19,3,{SPACE},Noncue,BigCircle.bmp,1,{SPACE},{SPACE},359,412031,GoGoNoGo_r,104,2,19,19,4,{SPACE},Cue,BigSquare.bmp,1,{SPACE},{SPACE},492,414164,GoGoNoGo_r,104,2,19,19,5,,Precued,SmallSquare.bmp,1,,,0,0,No GoGoNoGo_r,104,2,19,19,6,{SPACE},Cue,BigSquare.bmp,1,{SPACE},{SPACE},373,418044,GoGoNoGo_r,104,2,19,19,7,,Precued,SmallSquare.bmp,1,,,0,0,No GoGoNoGo_r,104,2,19,19,8,{SPACE},Noncue,BigCircle.bmp,1,{SPACE},{SPACE},346,422032,GoGoNoGo_r,104,2,19,19,9,{SPACE},Noncue,BigCircle.bmp,1,{SPACE},{SPACE},606,424292,GoGoNoGo_r,104,2,19,19,10,{SPACE},Noncue,BigCircle.bmp,0,{SPACE},,0,0,GoGoNoGo_r,105,1,1,1,,,,,,,,,,GoNoGo_r,105,1,2,2,1,{SPACE},Cue,BigSquare.bmp,0,{SPACE},,0,0,GoGoNoGo_r,105,1,2,2,2,,Precued,SmallSquare.bmp,1,,,0,0,No GoGoNoGo_r,105,1,2,2,3,{SPACE},Noncue,BigCircle.bmp,1,{SPACE},{SPACE},894,386874,GoGoNoGo_r,105,1,2,2,4,{SPACE},Noncue,SmallCircle.bmp,1,{SPACE},{SPACE},639,388602,GoGoNoGo_r,105,1,2,2,5,{SPACE},Cue,BigSquare.bmp,1,{SPACE},{SPACE},437,390399,GoGoNoGo_r,105,1,2,2,6,,Precued,SmallSquare.bmp,1,,,0,0,No GoGoNoGo_r,105,1,2,2,7,{SPACE},Noncue,BigCircle.bmp,1,{SPACE},{SPACE},445,394406,GoGoNoGo_r,105,1,2,2,8,,Uncued,SmallSquare.bmp,1,,,0,0,No GoGoNoGo_r,105,1,2,2,9,{SPACE},Noncue,BigCircle.bmp,1,{SPACE},{SPACE},336,398296,GoGoNoGo_r,105,1,2,2,10,{SPACE},Noncue,BigCircle.bmp,1,{SPACE},{SPACE},435,400395,GoGoNoGo_r,105,1,3,3,1,{SPACE},Noncue,BigCircle.bmp,1,{SPACE},{SPACE},398,402374,GoGoNoGo_r,105,1,3,3,2,,Uncued,SmallSquare.bmp,1,,,0,0,No GoGoNoGo_r,105,1,3,3,3,{SPACE},Cue,BigSquare.bmp,1,{SPACE},{SPACE},437,406412,GoGoNoGo_r,105,1,3,3,4,,Precued,SmallSquare.bmp,1,,,0,0,No GoGoNoGo_r,105,1,3,3,5,{SPACE},Noncue,SmallCircle.bmp,1,{SPACE},{SPACE},417,410391,GoGoNoGo_r,105,1,3,3,6,{SPACE},Cue,BigSquare.bmp,1,{SPACE},{SPACE},437,412427,GoGoNoGo_r,105,1,3,3,7,,Precued,SmallSquare.bmp,1,,,0,0,No GoGoNoGo_r,105,1,3,3,8,{SPACE},Noncue,BigCircle.bmp,1,{SPACE},{SPACE},301,416290,GoGoNoGo_r,105,1,3,3,9,{SPACE},Cue,BigSquare.bmp,1,{SPACE},{SPACE},372,418361,GoGoNoGo_r,105,1,3,3,10,{SPACE},Noncue,BigCircle.bmp,1,{SPACE},{SPACE},403,420391,GoGoNoGo_r,105,1,4,4,1,{SPACE},Noncue,SmallCircle.bmp,1,{SPACE},{SPACE},572,422576,GoGoNoGo_r,105,1,4,4,2,{SPACE},Cue,BigSquare.bmp,1,{SPACE},{SPACE},491,424495,GoGoNoGo_r,105,1,4,4,3,,Precued,SmallSquare.bmp,1,,,0,0,No GoGoNoGo_r,105,1,4,4,4,{SPACE},Noncue,BigCircle.bmp,1,{SPACE},{SPACE},368,428371,GoGoNoGo_r,105,1,4,4,5,{SPACE},Cue,BigSquare.bmp,1,{SPACE},{SPACE},488,430490,GoGoNoGo_r,105,1,4,4,6,,Precued,SmallSquare.bmp,1,,,0,0,No GoGoNoGo_r,105,1,4,4,7,{SPACE},Noncue,BigCircle.bmp,1,{SPACE},{SPACE},250,434268,GoGoNoGo_r,105,1,4,4,8,{SPACE},Noncue,BigCircle.bmp,1,{SPACE},{SPACE},228,436245,GoGoNoGo_r,105,1,4,4,9,,Uncued,SmallSquare.bmp,1,,,0,0,No GoGoNoGo_r,105,1,4,4,10,{SPACE},Noncue,BigCircle.bmp,1,{SPACE},{SPACE},256,440272,GoGoNoGo_r,105,1,5,5,1,{SPACE},Noncue,BigCircle.bmp,1,{SPACE},{SPACE},384,442400,GoGoNoGo_r,105,1,5,5,2,{SPACE},Noncue,BigCircle.bmp,1,{SPACE},{SPACE},407,444439,GoGoNoGo_r,105,1,5,5,3,{SPACE},Cue,BigSquare.bmp,1,{SPACE},{SPACE},531,446563,GoGoNoGo_r,105,1,5,5,4,,Precued,SmallSquare.bmp,1,,,0,0,No GoGoNoGo_r,105,1,5,5,5,{SPACE},Noncue,BigCircle.bmp,1,{SPACE},{SPACE},267,450298,GoGoNoGo_r,105,1,5,5,6,,Uncued,SmallSquare.bmp,1,,,0,0,No GoGoNoGo_r,105,1,5,5,7,{SPACE},Noncue,BigCircle.bmp,1,{SPACE},{SPACE},276,454322,GoGoNoGo_r,105,1,5,5,8,{SPACE},Noncue,BigCircle.bmp,1,{SPACE},{SPACE},304,456350,GoGoNoGo_r,105,1,5,5,9,{SPACE},Cue,BigSquare.bmp,1,{SPACE},{SPACE},339,458384,GoGoNoGo_r,105,1,5,5,10,,Precued,SmallSquare.bmp,1,,,0,0,No GoGoNoGo_r,105,1,6,6,1,{SPACE},Cue,BigSquare.bmp,1,{SPACE},{SPACE},379,462423,GoGoNoGo_r,105,1,6,6,2,{SPACE},Noncue,BigCircle.bmp,1,{SPACE},{SPACE},551,464611,GoGoNoGo_r,105,1,6,6,3,,Uncued,SmallSquare.bmp,1,,,0,0,No GoGoNoGo_r,105,1,6,6,4,{SPACE},Cue,BigSquare.bmp,1,{SPACE},{SPACE},274,468333,GoGoNoGo_r,105,1,6,6,5,,Precued,SmallSquare.bmp,1,,,0,0,No GoGoNoGo_r,105,1,6,6,6,{SPACE},Noncue,BigCircle.bmp,1,{SPACE},{SPACE},295,472353,GoGoNoGo_r,105,1,6,6,7,{SPACE},Cue,BigSquare.bmp,1,{SPACE},{SPACE},310,474368,GoGoNoGo_r,105,1,6,6,8,,Precued,SmallSquare.bmp,1,,,0,0,No GoGoNoGo_r,105,1,6,6,9,{SPACE},Noncue,SmallCircle.bmp,1,{SPACE},{SPACE},306,478379,GoGoNoGo_r,105,1,6,6,10,,Uncued,SmallSquare.bmp,1,,,0,0,No GoGoNoGo_r,105,1,7,7,1,{SPACE},Noncue,BigCircle.bmp,1,{SPACE},{SPACE},456,482528,GoGoNoGo_r,105,1,7,7,2,{SPACE},Cue,BigSquare.bmp,1,{SPACE},{SPACE},598,484670,GoGoNoGo_r,105,1,7,7,3,,Precued,SmallSquare.bmp,1,,,0,0,No GoGoNoGo_r,105,1,7,7,4,{SPACE},Noncue,SmallCircle.bmp,1,{SPACE},{SPACE},513,488601,GoGoNoGo_r,105,1,7,7,5,,Uncued,SmallSquare.bmp,1,,,0,0,No GoGoNoGo_r,105,1,7,7,6,{SPACE},Noncue,BigCircle.bmp,1,{SPACE},{SPACE},386,492473,GoGoNoGo_r,105,1,7,7,7,{SPACE},Noncue,BigCircle.bmp,1,{SPACE},{SPACE},380,494466,GoGoNoGo_r,105,1,7,7,8,{SPACE},Cue,BigSquare.bmp,1,{SPACE},{SPACE},401,496503,GoGoNoGo_r,105,1,7,7,9,,Precued,SmallSquare.bmp,1,,,0,0,No GoGoNoGo_r,105,1,7,7,10,{SPACE},Noncue,BigCircle.bmp,1,{SPACE},{SPACE},345,500446,GoGoNoGo_r,105,1,8,8,1,{SPACE},Noncue,SmallCircle.bmp,1,{SPACE},{SPACE},607,502708,GoGoNoGo_r,105,1,8,8,2,{SPACE},Cue,BigSquare.bmp,1,{SPACE},{SPACE},424,504524,GoGoNoGo_r,105,1,8,8,3,,Precued,SmallSquare.bmp,1,,,0,0,No GoGoNoGo_r,105,1,8,8,4,{SPACE},Noncue,BigCircle.bmp,1,{SPACE},{SPACE},308,508424,GoGoNoGo_r,105,1,8,8,5,{SPACE},Noncue,BigCircle.bmp,1,{SPACE},{SPACE},287,510402,GoGoNoGo_r,105,1,8,8,6,{SPACE},Cue,BigSquare.bmp,1,{SPACE},{SPACE},316,512431,GoGoNoGo_r,105,1,8,8,7,,Precued,SmallSquare.bmp,0,,{SPACE},291,514405,No GoGoNoGo_r,105,1,8,8,8,{SPACE},Noncue,BigCircle.bmp,1,{SPACE},{SPACE},404,516518,GoGoNoGo_r,105,1,8,8,9,,Uncued,SmallSquare.bmp,1,,,0,0,No GoGoNoGo_r,105,1,8,8,10,{SPACE},Noncue,BigCircle.bmp,1,{SPACE},{SPACE},384,520513,GoGoNoGo_r,105,1,9,9,1,{SPACE},Cue,BigSquare.bmp,1,{SPACE},{SPACE},518,522647,GoGoNoGo_r,105,1,9,9,2,{SPACE},Noncue,SmallCircle.bmp,1,{SPACE},{SPACE},539,524667,GoGoNoGo_r,105,1,9,9,3,{SPACE},Noncue,BigCircle.bmp,1,{SPACE},{SPACE},476,526604,GoGoNoGo_r,105,1,9,9,4,{SPACE},Cue,BigSquare.bmp,1,{SPACE},{SPACE},396,528540,GoGoNoGo_r,105,1,9,9,5,,Precued,SmallSquare.bmp,1,,,0,0,No GoGoNoGo_r,105,1,9,9,6,{SPACE},Cue,BigSquare.bmp,1,{SPACE},{SPACE},365,532508,GoGoNoGo_r,105,1,9,9,7,,Precued,SmallSquare.bmp,1,,,0,0,No GoGoNoGo_r,105,1,9,9,8,{SPACE},Noncue,BigCircle.bmp,1,{SPACE},{SPACE},288,536430,GoGoNoGo_r,105,1,9,9,9,,Uncued,SmallSquare.bmp,1,,,0,0,No GoGoNoGo_r,105,1,9,9,10,{SPACE},Noncue,BigCircle.bmp,1,{SPACE},{SPACE},338,540496,GoGoNoGo_r,105,1,10,10,1,{SPACE},Noncue,BigCircle.bmp,1,{SPACE},{SPACE},506,542663,GoGoNoGo_r,105,1,10,10,2,{SPACE},Cue,BigSquare.bmp,1,{SPACE},{SPACE},470,544627,GoGoNoGo_r,105,1,10,10,3,,Precued,SmallSquare.bmp,1,,,0,0,No GoGoNoGo_r,105,1,10,10,4,{SPACE},Cue,BigSquare.bmp,1,{SPACE},{SPACE},299,548455,GoGoNoGo_r,105,1,10,10,5,,Precued,SmallSquare.bmp,1,,,0,0,No GoGoNoGo_r,105,1,10,10,6,{SPACE},Noncue,BigCircle.bmp,1,{SPACE},{SPACE},384,552555,GoGoNoGo_r,105,1,10,10,7,{SPACE},Cue,BigSquare.bmp,1,{SPACE},{SPACE},396,554567,GoGoNoGo_r,105,1,10,10,8,,Precued,SmallSquare.bmp,1,,,0,0,No GoGoNoGo_r,105,1,10,10,9,{SPACE},Noncue,BigCircle.bmp,1,{SPACE},{SPACE},405,558575,GoGoNoGo_r,105,1,10,10,10,,Uncued,SmallSquare.bmp,1,,,0,0,No GoGoNoGo_r,105,1,11,11,1,{SPACE},Cue,BigSquare.bmp,1,{SPACE},{SPACE},378,562564,GoGoNoGo_r,105,1,11,11,2,,Precued,SmallSquare.bmp,1,,,0,0,No GoGoNoGo_r,105,1,11,11,3,{SPACE},Noncue,BigCircle.bmp,1,{SPACE},{SPACE},439,566624,GoGoNoGo_r,105,1,11,11,4,,Uncued,SmallSquare.bmp,1,,,0,0,No GoGoNoGo_r,105,1,11,11,5,{SPACE},Noncue,BigCircle.bmp,1,{SPACE},{SPACE},538,570738,GoGoNoGo_r,105,1,11,11,6,{SPACE},Noncue,SmallCircle.bmp,1,{SPACE},{SPACE},598,572798,GoGoNoGo_r,105,1,11,11,7,{SPACE},Cue,BigSquare.bmp,1,{SPACE},{SPACE},566,574765,GoGoNoGo_r,105,1,11,11,8,,Precued,SmallSquare.bmp,1,,,0,0,No GoGoNoGo_r,105,1,11,11,9,{SPACE},Noncue,BigCircle.bmp,1,{SPACE},{SPACE},383,578581,GoGoNoGo_r,105,1,11,11,10,,Uncued,SmallSquare.bmp,1,,,0,0,No GoGoNoGo_r,105,1,12,12,1,{SPACE},Noncue,SmallCircle.bmp,1,{SPACE},{SPACE},324,582538,GoGoNoGo_r,105,1,12,12,2,{SPACE},Cue,BigSquare.bmp,1,{SPACE},{SPACE},582,584795,GoGoNoGo_r,105,1,12,12,3,,Precued,SmallSquare.bmp,1,,,0,0,No GoGoNoGo_r,105,1,12,12,4,{SPACE},Cue,BigSquare.bmp,1,{SPACE},{SPACE},349,588561,GoGoNoGo_r,105,1,12,12,5,{SPACE},Noncue,BigCircle.bmp,1,{SPACE},{SPACE},316,590528,GoGoNoGo_r,105,1,12,12,6,{SPACE},Cue,BigSquare.bmp,1,{SPACE},{SPACE},531,592759,GoGoNoGo_r,105,1,12,12,7,,Precued,SmallSquare.bmp,1,,,0,0,No GoGoNoGo_r,105,1,12,12,8,{SPACE},Noncue,BigCircle.bmp,1,{SPACE},{SPACE},420,596647,GoGoNoGo_r,105,1,12,12,9,,Uncued,SmallSquare.bmp,1,,,0,0,No GoGoNoGo_r,105,1,12,12,10,{SPACE},Noncue,BigCircle.bmp,1,{SPACE},{SPACE},359,600585,GoGoNoGo_r,105,1,13,13,1,{SPACE},Cue,BigSquare.bmp,1,{SPACE},{SPACE},561,602803,GoGoNoGo_r,105,1,13,13,2,,Precued,SmallSquare.bmp,1,,,0,0,No GoGoNoGo_r,105,1,13,13,3,{SPACE},Noncue,BigCircle.bmp,1,{SPACE},{SPACE},391,606632,GoGoNoGo_r,105,1,13,13,4,,Uncued,SmallSquare.bmp,1,,,0,0,No GoGoNoGo_r,105,1,13,13,5,{SPACE},Noncue,BigCircle.bmp,1,{SPACE},{SPACE},385,610625,GoGoNoGo_r,105,1,13,13,6,{SPACE},Cue,BigSquare.bmp,1,{SPACE},{SPACE},434,612690,GoGoNoGo_r,105,1,13,13,7,,Precued,SmallSquare.bmp,1,,,0,0,No GoGoNoGo_r,105,1,13,13,8,{SPACE},Noncue,BigCircle.bmp,1,{SPACE},{SPACE},332,616587,GoGoNoGo_r,105,1,13,13,9,{SPACE},Noncue,SmallCircle.bmp,1,{SPACE},{SPACE},572,618827,GoGoNoGo_r,105,1,13,13,10,{SPACE},Noncue,BigCircle.bmp,1,{SPACE},{SPACE},460,620714,GoGoNoGo_r,105,1,14,14,1,,Uncued,SmallSquare.bmp,1,,,0,0,No GoGoNoGo_r,105,1,14,14,2,{SPACE},Noncue,BigCircle.bmp,1,{SPACE},{SPACE},355,624625,GoGoNoGo_r,105,1,14,14,3,{SPACE},Cue,BigSquare.bmp,1,{SPACE},{SPACE},360,626629,GoGoNoGo_r,105,1,14,14,4,,Precued,SmallSquare.bmp,0,,{SPACE},363,628632,No GoGoNoGo_r,105,1,14,14,5,{SPACE},Noncue,BigCircle.bmp,0,{SPACE},,0,0,GoGoNoGo_r,105,1,14,14,6,{SPACE},Cue,BigSquare.bmp,1,{SPACE},{SPACE},487,632755,GoGoNoGo_r,105,1,14,14,7,,Precued,SmallSquare.bmp,1,,,0,0,No GoGoNoGo_r,105,1,14,14,8,{SPACE},Noncue,BigCircle.bmp,1,{SPACE},{SPACE},353,636637,GoGoNoGo_r,105,1,14,14,9,{SPACE},Noncue,SmallCircle.bmp,1,{SPACE},{SPACE},471,638754,GoGoNoGo_r,105,1,14,14,10,{SPACE},Noncue,BigCircle.bmp,1,{SPACE},{SPACE},364,640646,GoGoNoGo_r,105,1,15,15,1,{SPACE},Cue,BigSquare.bmp,1,{SPACE},{SPACE},603,642885,GoGoNoGo_r,105,1,15,15,2,,Precued,SmallSquare.bmp,1,,,0,0,No GoGoNoGo_r,105,1,15,15,3,{SPACE},Noncue,BigCircle.bmp,1,{SPACE},{SPACE},347,646645,GoGoNoGo_r,105,1,15,15,4,,Uncued,SmallSquare.bmp,1,,,0,0,No GoGoNoGo_r,105,1,15,15,5,{SPACE},Noncue,BigCircle.bmp,1,{SPACE},{SPACE},330,650627,GoGoNoGo_r,105,1,15,15,6,{SPACE},Cue,BigSquare.bmp,1,{SPACE},{SPACE},283,652579,GoGoNoGo_r,105,1,15,15,7,,Precued,SmallSquare.bmp,1,,,0,0,No GoGoNoGo_r,105,1,15,15,8,{SPACE},Noncue,BigCircle.bmp,1,{SPACE},{SPACE},315,656627,GoGoNoGo_r,105,1,15,15,9,{SPACE},Cue,BigSquare.bmp,1,{SPACE},{SPACE},461,658772,GoGoNoGo_r,105,1,15,15,10,{SPACE},Noncue,BigCircle.bmp,1,{SPACE},{SPACE},539,660850,GoGoNoGo_r,105,1,16,16,1,{SPACE},Noncue,SmallCircle.bmp,1,{SPACE},{SPACE},533,662843,GoGoNoGo_r,105,1,16,16,2,,Uncued,SmallSquare.bmp,1,,,0,0,No GoGoNoGo_r,105,1,16,16,3,{SPACE},Cue,BigSquare.bmp,1,{SPACE},{SPACE},480,666806,GoGoNoGo_r,105,1,16,16,4,,Precued,SmallSquare.bmp,1,,,0,0,No GoGoNoGo_r,105,1,16,16,5,{SPACE},Noncue,BigCircle.bmp,1,{SPACE},{SPACE},333,670658,GoGoNoGo_r,105,1,16,16,6,{SPACE},Noncue,BigCircle.bmp,1,{SPACE},{SPACE},457,672781,GoGoNoGo_r,105,1,16,16,7,{SPACE},Cue,BigSquare.bmp,1,{SPACE},{SPACE},553,674877,GoGoNoGo_r,105,1,16,16,8,,Precued,SmallSquare.bmp,1,,,0,0,No GoGoNoGo_r,105,1,16,16,9,{SPACE},Noncue,BigCircle.bmp,1,{SPACE},{SPACE},348,678688,GoGoNoGo_r,105,1,16,16,10,{SPACE},Noncue,SmallCircle.bmp,1,{SPACE},{SPACE},618,680957,GoGoNoGo_r,105,1,17,17,1,{SPACE},Noncue,BigCircle.bmp,1,{SPACE},{SPACE},503,682842,GoGoNoGo_r,105,1,17,17,2,,Uncued,SmallSquare.bmp,1,,,0,0,No GoGoNoGo_r,105,1,17,17,3,{SPACE},Noncue,SmallCircle.bmp,1,{SPACE},{SPACE},365,686719,GoGoNoGo_r,105,1,17,17,4,{SPACE},Cue,BigSquare.bmp,1,{SPACE},{SPACE},497,688851,GoGoNoGo_r,105,1,17,17,5,,Precued,SmallSquare.bmp,1,,,0,0,No GoGoNoGo_r,105,1,17,17,6,{SPACE},Cue,BigSquare.bmp,1,{SPACE},{SPACE},352,692705,GoGoNoGo_r,105,1,17,17,7,,Precued,SmallSquare.bmp,1,,,0,0,No GoGoNoGo_r,105,1,17,17,8,{SPACE},Noncue,BigCircle.bmp,1,{SPACE},{SPACE},405,696773,GoGoNoGo_r,105,1,17,17,9,{SPACE},Noncue,SmallCircle.bmp,1,{SPACE},{SPACE},557,698925,GoGoNoGo_r,105,1,17,17,10,{SPACE},Noncue,BigCircle.bmp,1,{SPACE},{SPACE},601,700968,GoGoNoGo_r,105,1,18,18,1,{SPACE},Cue,BigSquare.bmp,1,{SPACE},{SPACE},654,703021,GoGoNoGo_r,105,1,18,18,2,,Precued,SmallSquare.bmp,1,,,0,0,No GoGoNoGo_r,105,1,18,18,3,{SPACE},Noncue,BigCircle.bmp,1,{SPACE},{SPACE},475,706841,GoGoNoGo_r,105,1,18,18,4,,Uncued,SmallSquare.bmp,1,,,0,0,No GoGoNoGo_r,105,1,18,18,5,{SPACE},Cue,BigSquare.bmp,1,{SPACE},{SPACE},377,710758,GoGoNoGo_r,105,1,18,18,6,{SPACE},Noncue,BigCircle.bmp,1,{SPACE},{SPACE},447,712828,GoGoNoGo_r,105,1,18,18,7,{SPACE},Noncue,SmallCircle.bmp,1,{SPACE},{SPACE},604,714984,GoGoNoGo_r,105,1,18,18,8,{SPACE},Cue,BigSquare.bmp,1,{SPACE},{SPACE},628,717008,GoGoNoGo_r,105,1,18,18,9,,Precued,SmallSquare.bmp,1,,,0,0,No GoGoNoGo_r,105,1,18,18,10,{SPACE},Noncue,BigCircle.bmp,1,{SPACE},{SPACE},432,720828,GoGoNoGo_r,105,1,19,19,1,,Uncued,SmallSquare.bmp,1,,,0,0,No GoGoNoGo_r,105,1,19,19,2,{SPACE},Noncue,BigCircle.bmp,1,{SPACE},{SPACE},283,724678,GoGoNoGo_r,105,1,19,19,3,{SPACE},Noncue,BigCircle.bmp,1,{SPACE},{SPACE},371,726765,GoGoNoGo_r,105,1,19,19,4,{SPACE},Cue,BigSquare.bmp,1,{SPACE},{SPACE},509,728919,GoGoNoGo_r,105,1,19,19,5,,Precued,SmallSquare.bmp,1,,,0,0,No GoGoNoGo_r,105,1,19,19,6,{SPACE},Cue,BigSquare.bmp,1,{SPACE},{SPACE},416,732825,GoGoNoGo_r,105,1,19,19,7,,Precued,SmallSquare.bmp,1,,,0,0,No GoGoNoGo_r,105,1,19,19,8,{SPACE},Noncue,BigCircle.bmp,1,{SPACE},{SPACE},351,736759,GoGoNoGo_r,105,1,19,19,9,{SPACE},Noncue,BigCircle.bmp,1,{SPACE},{SPACE},460,738868,GoGoNoGo_r,105,1,19,19,10,{SPACE},Noncue,BigCircle.bmp,1,{SPACE},{SPACE},526,740950,GoGoNoGo_r,105,2,1,1,,,,,,,,,,GoNoGo_r,105,2,2,2,1,{SPACE},Cue,BigSquare.bmp,1,{SPACE},{SPACE},592,228599,GoGoNoGo_r,105,2,2,2,2,,Precued,SmallSquare.bmp,1,,,0,0,No GoGoNoGo_r,105,2,2,2,3,{SPACE},Noncue,BigCircle.bmp,1,{SPACE},{SPACE},274,232280,GoGoNoGo_r,105,2,2,2,4,{SPACE},Noncue,SmallCircle.bmp,1,{SPACE},{SPACE},447,234452,GoGoNoGo_r,105,2,2,2,5,{SPACE},Cue,BigSquare.bmp,1,{SPACE},{SPACE},424,236429,GoGoNoGo_r,105,2,2,2,6,,Precued,SmallSquare.bmp,1,,,0,0,No GoGoNoGo_r,105,2,2,2,7,{SPACE},Noncue,BigCircle.bmp,1,{SPACE},{SPACE},379,240400,GoGoNoGo_r,105,2,2,2,8,,Uncued,SmallSquare.bmp,1,,,0,0,No GoGoNoGo_r,105,2,2,2,9,{SPACE},Noncue,BigCircle.bmp,1,{SPACE},{SPACE},215,244234,GoGoNoGo_r,105,2,2,2,10,{SPACE},Noncue,BigCircle.bmp,1,{SPACE},{SPACE},492,246511,GoGoNoGo_r,105,2,3,3,1,{SPACE},Noncue,BigCircle.bmp,1,{SPACE},{SPACE},397,248432,GoGoNoGo_r,105,2,3,3,2,,Uncued,SmallSquare.bmp,1,,,0,0,No GoGoNoGo_r,105,2,3,3,3,{SPACE},Cue,BigSquare.bmp,1,{SPACE},{SPACE},338,252372,GoGoNoGo_r,105,2,3,3,4,,Precued,SmallSquare.bmp,1,,,0,0,No GoGoNoGo_r,105,2,3,3,5,{SPACE},Noncue,SmallCircle.bmp,1,{SPACE},{SPACE},367,256400,GoGoNoGo_r,105,2,3,3,6,{SPACE},Cue,BigSquare.bmp,1,{SPACE},{SPACE},398,258447,GoGoNoGo_r,105,2,3,3,7,,Precued,SmallSquare.bmp,1,,,0,0,No GoGoNoGo_r,105,2,3,3,8,{SPACE},Noncue,BigCircle.bmp,1,{SPACE},{SPACE},261,262309,GoGoNoGo_r,105,2,3,3,9,{SPACE},Cue,BigSquare.bmp,1,{SPACE},{SPACE},382,264430,GoGoNoGo_r,105,2,3,3,10,{SPACE},Noncue,BigCircle.bmp,1,{SPACE},{SPACE},289,266336,GoGoNoGo_r,105,2,4,4,1,{SPACE},Noncue,SmallCircle.bmp,1,{SPACE},{SPACE},392,268455,GoGoNoGo_r,105,2,4,4,2,{SPACE},Cue,BigSquare.bmp,1,{SPACE},{SPACE},331,270394,GoGoNoGo_r,105,2,4,4,3,,Precued,SmallSquare.bmp,1,,,0,0,No GoGoNoGo_r,105,2,4,4,4,{SPACE},Noncue,BigCircle.bmp,1,{SPACE},{SPACE},322,274384,GoGoNoGo_r,105,2,4,4,5,{SPACE},Cue,BigSquare.bmp,1,{SPACE},{SPACE},326,276387,GoGoNoGo_r,105,2,4,4,6,,Precued,SmallSquare.bmp,1,,,0,0,No GoGoNoGo_r,105,2,4,4,7,{SPACE},Noncue,BigCircle.bmp,1,{SPACE},{SPACE},254,280331,GoGoNoGo_r,105,2,4,4,8,{SPACE},Noncue,BigCircle.bmp,1,{SPACE},{SPACE},272,282348,GoGoNoGo_r,105,2,4,4,9,,Uncued,SmallSquare.bmp,1,,,0,0,No GoGoNoGo_r,105,2,4,4,10,{SPACE},Noncue,BigCircle.bmp,1,{SPACE},{SPACE},272,286347,GoGoNoGo_r,105,2,5,5,1,{SPACE},Noncue,BigCircle.bmp,1,{SPACE},{SPACE},302,288377,GoGoNoGo_r,105,2,5,5,2,{SPACE},Noncue,BigCircle.bmp,1,{SPACE},{SPACE},377,290468,GoGoNoGo_r,105,2,5,5,3,{SPACE},Cue,BigSquare.bmp,1,{SPACE},{SPACE},297,292388,GoGoNoGo_r,105,2,5,5,4,,Precued,SmallSquare.bmp,1,,,0,0,No GoGoNoGo_r,105,2,5,5,5,{SPACE},Noncue,BigCircle.bmp,1,{SPACE},{SPACE},244,296333,GoGoNoGo_r,105,2,5,5,6,,Uncued,SmallSquare.bmp,1,,,0,0,No GoGoNoGo_r,105,2,5,5,7,{SPACE},Noncue,BigCircle.bmp,1,{SPACE},{SPACE},291,300396,GoGoNoGo_r,105,2,5,5,8,{SPACE},Noncue,BigCircle.bmp,1,{SPACE},{SPACE},227,302332,GoGoNoGo_r,105,2,5,5,9,{SPACE},Cue,BigSquare.bmp,1,{SPACE},{SPACE},294,304398,GoGoNoGo_r,105,2,5,5,10,,Precued,SmallSquare.bmp,1,,,0,0,No GoGoNoGo_r,105,2,6,6,1,{SPACE},Cue,BigSquare.bmp,1,{SPACE},{SPACE},227,308330,GoGoNoGo_r,105,2,6,6,2,{SPACE},Noncue,BigCircle.bmp,1,{SPACE},{SPACE},268,310387,GoGoNoGo_r,105,2,6,6,3,,Uncued,SmallSquare.bmp,1,,,0,0,No GoGoNoGo_r,105,2,6,6,4,{SPACE},Cue,BigSquare.bmp,1,{SPACE},{SPACE},299,314417,GoGoNoGo_r,105,2,6,6,5,,Precued,SmallSquare.bmp,1,,,0,0,No GoGoNoGo_r,105,2,6,6,6,{SPACE},Noncue,BigCircle.bmp,1,{SPACE},{SPACE},258,318375,GoGoNoGo_r,105,2,6,6,7,{SPACE},Cue,BigSquare.bmp,1,{SPACE},{SPACE},285,320418,GoGoNoGo_r,105,2,6,6,8,,Precued,SmallSquare.bmp,1,,,0,0,No GoGoNoGo_r,105,2,6,6,9,{SPACE},Noncue,SmallCircle.bmp,1,{SPACE},{SPACE},337,324469,GoGoNoGo_r,105,2,6,6,10,,Uncued,SmallSquare.bmp,1,,,0,0,No GoGoNoGo_r,105,2,7,7,1,{SPACE},Noncue,BigCircle.bmp,1,{SPACE},{SPACE},239,328370,GoGoNoGo_r,105,2,7,7,2,{SPACE},Cue,BigSquare.bmp,1,{SPACE},{SPACE},367,330498,GoGoNoGo_r,105,2,7,7,3,,Precued,SmallSquare.bmp,1,,,0,0,No GoGoNoGo_r,105,2,7,7,4,{SPACE},Noncue,SmallCircle.bmp,1,{SPACE},{SPACE},343,334489,GoGoNoGo_r,105,2,7,7,5,,Uncued,SmallSquare.bmp,1,,,0,0,No GoGoNoGo_r,105,2,7,7,6,{SPACE},Noncue,BigCircle.bmp,1,{SPACE},{SPACE},331,338476,GoGoNoGo_r,105,2,7,7,7,{SPACE},Noncue,BigCircle.bmp,1,{SPACE},{SPACE},364,340509,GoGoNoGo_r,105,2,7,7,8,{SPACE},Cue,BigSquare.bmp,1,{SPACE},{SPACE},262,342423,GoGoNoGo_r,105,2,7,7,9,,Precued,SmallSquare.bmp,1,,,0,0,No GoGoNoGo_r,105,2,7,7,10,{SPACE},Noncue,BigCircle.bmp,1,{SPACE},{SPACE},287,346447,GoGoNoGo_r,105,2,8,8,1,{SPACE},Noncue,SmallCircle.bmp,1,{SPACE},{SPACE},478,348637,GoGoNoGo_r,105,2,8,8,2,{SPACE},Cue,BigSquare.bmp,1,{SPACE},{SPACE},437,350596,GoGoNoGo_r,105,2,8,8,3,,Precued,SmallSquare.bmp,1,,,0,0,No GoGoNoGo_r,105,2,8,8,4,{SPACE},Noncue,BigCircle.bmp,1,{SPACE},{SPACE},249,354424,GoGoNoGo_r,105,2,8,8,5,{SPACE},Noncue,BigCircle.bmp,1,{SPACE},{SPACE},257,356431,GoGoNoGo_r,105,2,8,8,6,{SPACE},Cue,BigSquare.bmp,1,{SPACE},{SPACE},279,358453,GoGoNoGo_r,105,2,8,8,7,,Precued,SmallSquare.bmp,1,,,0,0,No GoGoNoGo_r,105,2,8,8,8,{SPACE},Noncue,BigCircle.bmp,1,{SPACE},{SPACE},225,362414,GoGoNoGo_r,105,2,8,8,9,,Uncued,SmallSquare.bmp,1,,,0,0,No GoGoNoGo_r,105,2,8,8,10,{SPACE},Noncue,BigCircle.bmp,1,{SPACE},{SPACE},212,366400,GoGoNoGo_r,105,2,9,9,1,{SPACE},Cue,BigSquare.bmp,1,{SPACE},{SPACE},326,368514,GoGoNoGo_r,105,2,9,9,2,{SPACE},Noncue,SmallCircle.bmp,1,{SPACE},{SPACE},497,370684,GoGoNoGo_r,105,2,9,9,3,{SPACE},Noncue,BigCircle.bmp,1,{SPACE},{SPACE},326,372529,GoGoNoGo_r,105,2,9,9,4,{SPACE},Cue,BigSquare.bmp,1,{SPACE},{SPACE},266,374469,GoGoNoGo_r,105,2,9,9,5,,Precued,SmallSquare.bmp,1,,,0,0,No GoGoNoGo_r,105,2,9,9,6,{SPACE},Cue,BigSquare.bmp,1,{SPACE},{SPACE},293,378495,GoGoNoGo_r,105,2,9,9,7,,Precued,SmallSquare.bmp,1,,,0,0,No GoGoNoGo_r,105,2,9,9,8,{SPACE},Noncue,BigCircle.bmp,1,{SPACE},{SPACE},226,382427,GoGoNoGo_r,105,2,9,9,9,,Uncued,SmallSquare.bmp,1,,,0,0,No GoGoNoGo_r,105,2,9,9,10,{SPACE},Noncue,BigCircle.bmp,1,{SPACE},{SPACE},236,386452,GoGoNoGo_r,105,2,10,10,1,{SPACE},Noncue,BigCircle.bmp,1,{SPACE},{SPACE},354,388570,GoGoNoGo_r,105,2,10,10,2,{SPACE},Cue,BigSquare.bmp,1,{SPACE},{SPACE},372,390587,GoGoNoGo_r,105,2,10,10,3,,Precued,SmallSquare.bmp,1,,,0,0,No GoGoNoGo_r,105,2,10,10,4,{SPACE},Cue,BigSquare.bmp,1,{SPACE},{SPACE},311,394542,GoGoNoGo_r,105,2,10,10,5,,Precued,SmallSquare.bmp,1,,,0,0,No GoGoNoGo_r,105,2,10,10,6,{SPACE},Noncue,BigCircle.bmp,1,{SPACE},{SPACE},236,398466,GoGoNoGo_r,105,2,10,10,7,{SPACE},Cue,BigSquare.bmp,1,{SPACE},{SPACE},403,400632,GoGoNoGo_r,105,2,10,10,8,,Precued,SmallSquare.bmp,1,,,0,0,No GoGoNoGo_r,105,2,10,10,9,{SPACE},Noncue,BigCircle.bmp,1,{SPACE},{SPACE},218,404463,GoGoNoGo_r,105,2,10,10,10,,Uncued,SmallSquare.bmp,1,,,0,0,No GoGoNoGo_r,105,2,11,11,1,{SPACE},Cue,BigSquare.bmp,1,{SPACE},{SPACE},269,408513,GoGoNoGo_r,105,2,11,11,2,,Precued,SmallSquare.bmp,1,,,0,0,No GoGoNoGo_r,105,2,11,11,3,{SPACE},Noncue,BigCircle.bmp,1,{SPACE},{SPACE},271,412514,GoGoNoGo_r,105,2,11,11,4,,Uncued,SmallSquare.bmp,1,,,0,0,No GoGoNoGo_r,105,2,11,11,5,{SPACE},Noncue,BigCircle.bmp,1,{SPACE},{SPACE},354,416613,GoGoNoGo_r,105,2,11,11,6,{SPACE},Noncue,SmallCircle.bmp,1,{SPACE},{SPACE},454,418712,GoGoNoGo_r,105,2,11,11,7,{SPACE},Cue,BigSquare.bmp,1,{SPACE},{SPACE},466,420724,GoGoNoGo_r,105,2,11,11,8,,Precued,SmallSquare.bmp,0,,{SPACE},250,422507,No GoGoNoGo_r,105,2,11,11,9,{SPACE},Noncue,BigCircle.bmp,1,{SPACE},{SPACE},409,424682,GoGoNoGo_r,105,2,11,11,10,,Uncued,SmallSquare.bmp,1,,,0,0,No GoGoNoGo_r,105,2,12,12,1,{SPACE},Noncue,SmallCircle.bmp,1,{SPACE},{SPACE},331,428603,GoGoNoGo_r,105,2,12,12,2,{SPACE},Cue,BigSquare.bmp,1,{SPACE},{SPACE},302,430574,GoGoNoGo_r,105,2,12,12,3,,Precued,SmallSquare.bmp,1,,,0,0,No GoGoNoGo_r,105,2,12,12,4,{SPACE},Cue,BigSquare.bmp,1,{SPACE},{SPACE},256,434527,GoGoNoGo_r,105,2,12,12,5,{SPACE},Noncue,BigCircle.bmp,1,{SPACE},{SPACE},332,436619,GoGoNoGo_r,105,2,12,12,6,{SPACE},Cue,BigSquare.bmp,1,{SPACE},{SPACE},404,438690,GoGoNoGo_r,105,2,12,12,7,,Precued,SmallSquare.bmp,1,,,0,0,No GoGoNoGo_r,105,2,12,12,8,{SPACE},Noncue,BigCircle.bmp,1,{SPACE},{SPACE},305,442590,GoGoNoGo_r,105,2,12,12,9,,Uncued,SmallSquare.bmp,1,,,0,0,No GoGoNoGo_r,105,2,12,12,10,{SPACE},Noncue,BigCircle.bmp,1,{SPACE},{SPACE},264,446565,GoGoNoGo_r,105,2,13,13,1,{SPACE},Cue,BigSquare.bmp,1,{SPACE},{SPACE},524,448825,GoGoNoGo_r,105,2,13,13,2,,Precued,SmallSquare.bmp,1,,,0,0,No GoGoNoGo_r,105,2,13,13,3,{SPACE},Noncue,BigCircle.bmp,1,{SPACE},{SPACE},310,452609,GoGoNoGo_r,105,2,13,13,4,,Uncued,SmallSquare.bmp,1,,,0,0,No GoGoNoGo_r,105,2,13,13,5,{SPACE},Noncue,BigCircle.bmp,1,{SPACE},{SPACE},269,456584,GoGoNoGo_r,105,2,13,13,6,{SPACE},Cue,BigSquare.bmp,1,{SPACE},{SPACE},433,458748,GoGoNoGo_r,105,2,13,13,7,,Precued,SmallSquare.bmp,1,,,0,0,No GoGoNoGo_r,105,2,13,13,8,{SPACE},Noncue,BigCircle.bmp,1,{SPACE},{SPACE},259,462573,GoGoNoGo_r,105,2,13,13,9,{SPACE},Noncue,SmallCircle.bmp,1,{SPACE},{SPACE},445,464758,GoGoNoGo_r,105,2,13,13,10,{SPACE},Noncue,BigCircle.bmp,1,{SPACE},{SPACE},336,466665,GoGoNoGo_r,105,2,14,14,1,,Uncued,SmallSquare.bmp,1,,,0,0,No GoGoNoGo_r,105,2,14,14,2,{SPACE},Noncue,BigCircle.bmp,1,{SPACE},{SPACE},316,470644,GoGoNoGo_r,105,2,14,14,3,{SPACE},Cue,BigSquare.bmp,1,{SPACE},{SPACE},430,472758,GoGoNoGo_r,105,2,14,14,4,,Precued,SmallSquare.bmp,1,,,0,0,No GoGoNoGo_r,105,2,14,14,5,{SPACE},Noncue,BigCircle.bmp,1,{SPACE},{SPACE},281,476624,GoGoNoGo_r,105,2,14,14,6,{SPACE},Cue,BigSquare.bmp,1,{SPACE},{SPACE},329,478672,GoGoNoGo_r,105,2,14,14,7,,Precued,SmallSquare.bmp,1,,,0,0,No GoGoNoGo_r,105,2,14,14,8,{SPACE},Noncue,BigCircle.bmp,1,{SPACE},{SPACE},320,482662,GoGoNoGo_r,105,2,14,14,9,{SPACE},Noncue,SmallCircle.bmp,1,{SPACE},{SPACE},527,484868,GoGoNoGo_r,105,2,14,14,10,{SPACE},Noncue,BigCircle.bmp,1,{SPACE},{SPACE},379,486720,GoGoNoGo_r,105,2,15,15,1,{SPACE},Cue,BigSquare.bmp,1,{SPACE},{SPACE},329,488686,GoGoNoGo_r,105,2,15,15,2,,Precued,SmallSquare.bmp,1,,,0,0,No GoGoNoGo_r,105,2,15,15,3,{SPACE},Noncue,BigCircle.bmp,1,{SPACE},{SPACE},341,492697,GoGoNoGo_r,105,2,15,15,4,,Uncued,SmallSquare.bmp,1,,,0,0,No GoGoNoGo_r,105,2,15,15,5,{SPACE},Noncue,BigCircle.bmp,1,{SPACE},{SPACE},343,496698,GoGoNoGo_r,105,2,15,15,6,{SPACE},Cue,BigSquare.bmp,1,{SPACE},{SPACE},509,498880,GoGoNoGo_r,105,2,15,15,7,,Precued,SmallSquare.bmp,1,,,0,0,No GoGoNoGo_r,105,2,15,15,8,{SPACE},Noncue,BigCircle.bmp,1,{SPACE},{SPACE},291,502661,GoGoNoGo_r,105,2,15,15,9,{SPACE},Cue,BigSquare.bmp,1,{SPACE},{SPACE},479,504848,GoGoNoGo_r,105,2,15,15,10,{SPACE},Noncue,BigCircle.bmp,1,{SPACE},{SPACE},296,506665,GoGoNoGo_r,105,2,16,16,1,{SPACE},Noncue,SmallCircle.bmp,1,{SPACE},{SPACE},519,508904,GoGoNoGo_r,105,2,16,16,2,,Uncued,SmallSquare.bmp,1,,,0,0,No GoGoNoGo_r,105,2,16,16,3,{SPACE},Cue,BigSquare.bmp,1,{SPACE},{SPACE},315,512699,GoGoNoGo_r,105,2,16,16,4,,Precued,SmallSquare.bmp,1,,,0,0,No GoGoNoGo_r,105,2,16,16,5,{SPACE},Noncue,BigCircle.bmp,1,{SPACE},{SPACE},265,516648,GoGoNoGo_r,105,2,16,16,6,{SPACE},Noncue,BigCircle.bmp,1,{SPACE},{SPACE},361,518760,GoGoNoGo_r,105,2,16,16,7,{SPACE},Cue,BigSquare.bmp,1,{SPACE},{SPACE},430,520829,GoGoNoGo_r,105,2,16,16,8,,Precued,SmallSquare.bmp,1,,,0,0,No GoGoNoGo_r,105,2,16,16,9,{SPACE},Noncue,BigCircle.bmp,1,{SPACE},{SPACE},297,524695,GoGoNoGo_r,105,2,16,16,10,{SPACE},Noncue,SmallCircle.bmp,1,{SPACE},{SPACE},369,526766,GoGoNoGo_r,105,2,17,17,1,{SPACE},Noncue,BigCircle.bmp,1,{SPACE},{SPACE},357,528770,GoGoNoGo_r,105,2,17,17,2,,Uncued,SmallSquare.bmp,1,,,0,0,No GoGoNoGo_r,105,2,17,17,3,{SPACE},Noncue,SmallCircle.bmp,1,{SPACE},{SPACE},503,532915,GoGoNoGo_r,105,2,17,17,4,{SPACE},Cue,BigSquare.bmp,1,{SPACE},{SPACE},374,534786,GoGoNoGo_r,105,2,17,17,5,,Precued,SmallSquare.bmp,1,,,0,0,No GoGoNoGo_r,105,2,17,17,6,{SPACE},Cue,BigSquare.bmp,1,{SPACE},{SPACE},213,538624,GoGoNoGo_r,105,2,17,17,7,,Precued,SmallSquare.bmp,1,,,0,0,No GoGoNoGo_r,105,2,17,17,8,{SPACE},Noncue,BigCircle.bmp,1,{SPACE},{SPACE},256,542682,GoGoNoGo_r,105,2,17,17,9,{SPACE},Noncue,SmallCircle.bmp,1,{SPACE},{SPACE},498,544924,GoGoNoGo_r,105,2,17,17,10,{SPACE},Noncue,BigCircle.bmp,1,{SPACE},{SPACE},277,546702,GoGoNoGo_r,105,2,18,18,1,{SPACE},Cue,BigSquare.bmp,1,{SPACE},{SPACE},532,548957,GoGoNoGo_r,105,2,18,18,2,,Precued,SmallSquare.bmp,0,,{SPACE},348,550789,No GoGoNoGo_r,105,2,18,18,3,{SPACE},Noncue,BigCircle.bmp,1,{SPACE},{SPACE},333,552773,GoGoNoGo_r,105,2,18,18,4,,Uncued,SmallSquare.bmp,1,,,0,0,No GoGoNoGo_r,105,2,18,18,5,{SPACE},Cue,BigSquare.bmp,1,{SPACE},{SPACE},289,556728,GoGoNoGo_r,105,2,18,18,6,{SPACE},Noncue,BigCircle.bmp,1,{SPACE},{SPACE},481,558937,GoGoNoGo_r,105,2,18,18,7,{SPACE},Noncue,SmallCircle.bmp,1,{SPACE},{SPACE},458,560913,GoGoNoGo_r,105,2,18,18,8,{SPACE},Cue,BigSquare.bmp,1,{SPACE},{SPACE},544,562999,GoGoNoGo_r,105,2,18,18,9,,Precued,SmallSquare.bmp,1,,,0,0,No GoGoNoGo_r,105,2,18,18,10,{SPACE},Noncue,BigCircle.bmp,1,{SPACE},{SPACE},285,566739,GoGoNoGo_r,105,2,19,19,1,,Uncued,SmallSquare.bmp,1,,,0,0,No GoGoNoGo_r,105,2,19,19,2,{SPACE},Noncue,BigCircle.bmp,1,{SPACE},{SPACE},290,570759,GoGoNoGo_r,105,2,19,19,3,{SPACE},Noncue,BigCircle.bmp,1,{SPACE},{SPACE},373,572842,GoGoNoGo_r,105,2,19,19,4,{SPACE},Cue,BigSquare.bmp,1,{SPACE},{SPACE},453,574921,GoGoNoGo_r,105,2,19,19,5,,Precued,SmallSquare.bmp,1,,,0,0,No GoGoNoGo_r,105,2,19,19,6,{SPACE},Cue,BigSquare.bmp,1,{SPACE},{SPACE},378,578845,GoGoNoGo_r,105,2,19,19,7,,Precued,SmallSquare.bmp,1,,,0,0,No GoGoNoGo_r,105,2,19,19,8,{SPACE},Noncue,BigCircle.bmp,1,{SPACE},{SPACE},245,582728,GoGoNoGo_r,105,2,19,19,9,{SPACE},Noncue,BigCircle.bmp,1,{SPACE},{SPACE},296,584778,GoGoNoGo_r,105,2,19,19,10,{SPACE},Noncue,BigCircle.bmp,1,{SPACE},{SPACE},365,586847,GoGoNoGo_r,106,1,1,1,,,,,,,,,,GoNoGo_r,106,1,2,2,1,{SPACE},Cue,BigSquare.bmp,1,{SPACE},{SPACE},447,136026,GoGoNoGo_r,106,1,2,2,2,,Precued,SmallSquare.bmp,0,,{SPACE},382,137960,No GoGoNoGo_r,106,1,2,2,3,{SPACE},Noncue,BigCircle.bmp,1,{SPACE},{SPACE},389,139967,GoGoNoGo_r,106,1,2,2,4,{SPACE},Noncue,SmallCircle.bmp,1,{SPACE},{SPACE},470,142047,GoGoNoGo_r,106,1,2,2,5,{SPACE},Cue,BigSquare.bmp,1,{SPACE},{SPACE},421,143983,GoGoNoGo_r,106,1,2,2,6,,Precued,SmallSquare.bmp,1,,,0,0,No GoGoNoGo_r,106,1,2,2,7,{SPACE},Noncue,BigCircle.bmp,1,{SPACE},{SPACE},312,147905,GoGoNoGo_r,106,1,2,2,8,,Uncued,SmallSquare.bmp,1,,,0,0,No GoGoNoGo_r,106,1,2,2,9,{SPACE},Noncue,BigCircle.bmp,1,{SPACE},{SPACE},295,151887,GoGoNoGo_r,106,1,2,2,10,{SPACE},Noncue,BigCircle.bmp,1,{SPACE},{SPACE},366,153957,GoGoNoGo_r,106,1,3,3,1,{SPACE},Noncue,BigCircle.bmp,1,{SPACE},{SPACE},286,155877,GoGoNoGo_r,106,1,3,3,2,,Uncued,SmallSquare.bmp,1,,,0,0,No GoGoNoGo_r,106,1,3,3,3,{SPACE},Cue,BigSquare.bmp,1,{SPACE},{SPACE},302,159892,GoGoNoGo_r,106,1,3,3,4,,Precued,SmallSquare.bmp,0,,{SPACE},284,161890,No GoGoNoGo_r,106,1,3,3,5,{SPACE},Noncue,SmallCircle.bmp,1,{SPACE},{SPACE},391,163996,GoGoNoGo_r,106,1,3,3,6,{SPACE},Cue,BigSquare.bmp,1,{SPACE},{SPACE},458,166063,GoGoNoGo_r,106,1,3,3,7,,Precued,SmallSquare.bmp,1,,,0,0,No GoGoNoGo_r,106,1,3,3,8,{SPACE},Noncue,BigCircle.bmp,1,{SPACE},{SPACE},344,169965,GoGoNoGo_r,106,1,3,3,9,{SPACE},Cue,BigSquare.bmp,1,{SPACE},{SPACE},392,172012,GoGoNoGo_r,106,1,3,3,10,{SPACE},Noncue,BigCircle.bmp,1,{SPACE},{SPACE},414,174033,GoGoNoGo_r,106,1,4,4,1,{SPACE},Noncue,SmallCircle.bmp,1,{SPACE},{SPACE},460,176096,GoGoNoGo_r,106,1,4,4,2,{SPACE},Cue,BigSquare.bmp,1,{SPACE},{SPACE},383,178018,GoGoNoGo_r,106,1,4,4,3,,Precued,SmallSquare.bmp,1,,,0,0,No GoGoNoGo_r,106,1,4,4,4,{SPACE},Noncue,BigCircle.bmp,1,{SPACE},{SPACE},309,181943,GoGoNoGo_r,106,1,4,4,5,{SPACE},Cue,BigSquare.bmp,1,{SPACE},{SPACE},328,183962,GoGoNoGo_r,106,1,4,4,6,,Precued,SmallSquare.bmp,1,,,0,0,No GoGoNoGo_r,106,1,4,4,7,{SPACE},Noncue,BigCircle.bmp,1,{SPACE},{SPACE},306,187955,GoGoNoGo_r,106,1,4,4,8,{SPACE},Noncue,BigCircle.bmp,1,{SPACE},{SPACE},385,190050,GoGoNoGo_r,106,1,4,4,9,,Uncued,SmallSquare.bmp,1,,,0,0,No GoGoNoGo_r,106,1,4,4,10,{SPACE},Noncue,BigCircle.bmp,1,{SPACE},{SPACE},360,194008,GoGoNoGo_r,106,1,5,5,1,{SPACE},Noncue,BigCircle.bmp,1,{SPACE},{SPACE},355,196002,GoGoNoGo_r,106,1,5,5,2,{SPACE},Noncue,BigCircle.bmp,1,{SPACE},{SPACE},322,197985,GoGoNoGo_r,106,1,5,5,3,{SPACE},Cue,BigSquare.bmp,1,{SPACE},{SPACE},349,200012,GoGoNoGo_r,106,1,5,5,4,,Precued,SmallSquare.bmp,1,,,0,0,No GoGoNoGo_r,106,1,5,5,5,{SPACE},Noncue,BigCircle.bmp,1,{SPACE},{SPACE},296,203958,GoGoNoGo_r,106,1,5,5,6,,Uncued,SmallSquare.bmp,1,,,0,0,No GoGoNoGo_r,106,1,5,5,7,{SPACE},Noncue,BigCircle.bmp,1,{SPACE},{SPACE},338,208016,GoGoNoGo_r,106,1,5,5,8,{SPACE},Noncue,BigCircle.bmp,1,{SPACE},{SPACE},366,210060,GoGoNoGo_r,106,1,5,5,9,{SPACE},Cue,BigSquare.bmp,1,{SPACE},{SPACE},346,212039,GoGoNoGo_r,106,1,5,5,10,,Precued,SmallSquare.bmp,1,,,0,0,No GoGoNoGo_r,106,1,6,6,1,{SPACE},Cue,BigSquare.bmp,1,{SPACE},{SPACE},279,215973,GoGoNoGo_r,106,1,6,6,2,{SPACE},Noncue,BigCircle.bmp,1,{SPACE},{SPACE},318,218010,GoGoNoGo_r,106,1,6,6,3,,Uncued,SmallSquare.bmp,1,,,0,0,No GoGoNoGo_r,106,1,6,6,4,{SPACE},Cue,BigSquare.bmp,1,{SPACE},{SPACE},323,222031,GoGoNoGo_r,106,1,6,6,5,,Precued,SmallSquare.bmp,1,,,0,0,No GoGoNoGo_r,106,1,6,6,6,{SPACE},Noncue,BigCircle.bmp,1,{SPACE},{SPACE},308,226015,GoGoNoGo_r,106,1,6,6,7,{SPACE},Cue,BigSquare.bmp,1,{SPACE},{SPACE},348,228054,GoGoNoGo_r,106,1,6,6,8,,Precued,SmallSquare.bmp,1,,,0,0,No GoGoNoGo_r,106,1,6,6,9,{SPACE},Noncue,SmallCircle.bmp,1,{SPACE},{SPACE},273,231995,GoGoNoGo_r,106,1,6,6,10,,Uncued,SmallSquare.bmp,1,,,0,0,No GoGoNoGo_r,106,1,7,7,1,{SPACE},Noncue,BigCircle.bmp,1,{SPACE},{SPACE},322,236043,GoGoNoGo_r,106,1,7,7,2,{SPACE},Cue,BigSquare.bmp,1,{SPACE},{SPACE},356,238061,GoGoNoGo_r,106,1,7,7,3,,Precued,SmallSquare.bmp,1,,,0,0,No GoGoNoGo_r,106,1,7,7,4,{SPACE},Noncue,SmallCircle.bmp,1,{SPACE},{SPACE},329,242048,GoGoNoGo_r,106,1,7,7,5,,Uncued,SmallSquare.bmp,1,,,0,0,No GoGoNoGo_r,106,1,7,7,6,{SPACE},Noncue,BigCircle.bmp,1,{SPACE},{SPACE},281,246033,GoGoNoGo_r,106,1,7,7,7,{SPACE},Noncue,BigCircle.bmp,1,{SPACE},{SPACE},355,248089,GoGoNoGo_r,106,1,7,7,8,{SPACE},Cue,BigSquare.bmp,1,{SPACE},{SPACE},406,250140,GoGoNoGo_r,106,1,7,7,9,,Precued,SmallSquare.bmp,1,,,0,0,No GoGoNoGo_r,106,1,7,7,10,{SPACE},Noncue,BigCircle.bmp,1,{SPACE},{SPACE},434,254185,GoGoNoGo_r,106,1,8,8,1,{SPACE},Noncue,SmallCircle.bmp,1,{SPACE},{SPACE},565,256314,GoGoNoGo_r,106,1,8,8,2,{SPACE},Cue,BigSquare.bmp,1,{SPACE},{SPACE},331,258080,GoGoNoGo_r,106,1,8,8,3,,Precued,SmallSquare.bmp,1,,,0,0,No GoGoNoGo_r,106,1,8,8,4,{SPACE},Noncue,BigCircle.bmp,1,{SPACE},{SPACE},280,262028,GoGoNoGo_r,106,1,8,8,5,{SPACE},Noncue,BigCircle.bmp,1,{SPACE},{SPACE},290,264054,GoGoNoGo_r,106,1,8,8,6,{SPACE},Cue,BigSquare.bmp,1,{SPACE},{SPACE},287,266050,GoGoNoGo_r,106,1,8,8,7,,Precued,SmallSquare.bmp,1,,,0,0,No GoGoNoGo_r,106,1,8,8,8,{SPACE},Noncue,BigCircle.bmp,1,{SPACE},{SPACE},275,270054,GoGoNoGo_r,106,1,8,8,9,,Uncued,SmallSquare.bmp,1,,,0,0,No GoGoNoGo_r,106,1,8,8,10,{SPACE},Noncue,BigCircle.bmp,1,{SPACE},{SPACE},315,274093,GoGoNoGo_r,106,1,9,9,1,{SPACE},Cue,BigSquare.bmp,1,{SPACE},{SPACE},382,276159,GoGoNoGo_r,106,1,9,9,2,{SPACE},Noncue,SmallCircle.bmp,1,{SPACE},{SPACE},436,278213,GoGoNoGo_r,106,1,9,9,3,{SPACE},Noncue,BigCircle.bmp,1,{SPACE},{SPACE},376,280152,GoGoNoGo_r,106,1,9,9,4,{SPACE},Cue,BigSquare.bmp,1,{SPACE},{SPACE},352,282111,GoGoNoGo_r,106,1,9,9,5,,Precued,SmallSquare.bmp,1,,,0,0,No GoGoNoGo_r,106,1,9,9,6,{SPACE},Cue,BigSquare.bmp,1,{SPACE},{SPACE},342,286117,GoGoNoGo_r,106,1,9,9,7,,Precued,SmallSquare.bmp,0,,{SPACE},315,288106,No GoGoNoGo_r,106,1,9,9,8,{SPACE},Noncue,BigCircle.bmp,1,{SPACE},{SPACE},285,290076,GoGoNoGo_r,106,1,9,9,9,,Uncued,SmallSquare.bmp,1,,,0,0,No GoGoNoGo_r,106,1,9,9,10,{SPACE},Noncue,BigCircle.bmp,1,{SPACE},{SPACE},347,294137,GoGoNoGo_r,106,1,10,10,1,{SPACE},Noncue,BigCircle.bmp,1,{SPACE},{SPACE},327,296133,GoGoNoGo_r,106,1,10,10,2,{SPACE},Cue,BigSquare.bmp,1,{SPACE},{SPACE},298,298103,GoGoNoGo_r,106,1,10,10,3,,Precued,SmallSquare.bmp,1,,,0,0,No GoGoNoGo_r,106,1,10,10,4,{SPACE},Cue,BigSquare.bmp,1,{SPACE},{SPACE},364,302168,GoGoNoGo_r,106,1,10,10,5,,Precued,SmallSquare.bmp,1,,,0,0,No GoGoNoGo_r,106,1,10,10,6,{SPACE},Noncue,BigCircle.bmp,1,{SPACE},{SPACE},260,306063,GoGoNoGo_r,106,1,10,10,7,{SPACE},Cue,BigSquare.bmp,1,{SPACE},{SPACE},320,308125,GoGoNoGo_r,106,1,10,10,8,,Precued,SmallSquare.bmp,1,,,0,0,No GoGoNoGo_r,106,1,10,10,9,{SPACE},Noncue,BigCircle.bmp,1,{SPACE},{SPACE},358,312176,GoGoNoGo_r,106,1,10,10,10,,Uncued,SmallSquare.bmp,1,,,0,0,No GoGoNoGo_r,106,1,11,11,1,{SPACE},Cue,BigSquare.bmp,1,{SPACE},{SPACE},287,316090,GoGoNoGo_r,106,1,11,11,2,,Precued,SmallSquare.bmp,1,,,0,0,No GoGoNoGo_r,106,1,11,11,3,{SPACE},Noncue,BigCircle.bmp,1,{SPACE},{SPACE},407,320240,GoGoNoGo_r,106,1,11,11,4,,Uncued,SmallSquare.bmp,1,,,0,0,No GoGoNoGo_r,106,1,11,11,5,{SPACE},Noncue,BigCircle.bmp,1,{SPACE},{SPACE},318,324150,GoGoNoGo_r,106,1,11,11,6,{SPACE},Noncue,SmallCircle.bmp,1,{SPACE},{SPACE},519,326351,GoGoNoGo_r,106,1,11,11,7,{SPACE},Cue,BigSquare.bmp,1,{SPACE},{SPACE},381,328212,GoGoNoGo_r,106,1,11,11,8,,Precued,SmallSquare.bmp,1,,,0,0,No GoGoNoGo_r,106,1,11,11,9,{SPACE},Noncue,BigCircle.bmp,1,{SPACE},{SPACE},339,332186,GoGoNoGo_r,106,1,11,11,10,,Uncued,SmallSquare.bmp,0,,{SPACE},313,334159,No GoGoNoGo_r,106,1,12,12,1,{SPACE},Noncue,SmallCircle.bmp,1,{SPACE},{SPACE},433,336279,GoGoNoGo_r,106,1,12,12,2,{SPACE},Cue,BigSquare.bmp,1,{SPACE},{SPACE},509,338354,GoGoNoGo_r,106,1,12,12,3,,Precued,SmallSquare.bmp,1,,,0,0,No GoGoNoGo_r,106,1,12,12,4,{SPACE},Cue,BigSquare.bmp,1,{SPACE},{SPACE},366,342210,GoGoNoGo_r,106,1,12,12,5,{SPACE},Noncue,BigCircle.bmp,1,{SPACE},{SPACE},409,344270,GoGoNoGo_r,106,1,12,12,6,{SPACE},Cue,BigSquare.bmp,1,{SPACE},{SPACE},374,346219,GoGoNoGo_r,106,1,12,12,7,,Precued,SmallSquare.bmp,1,,,0,0,No GoGoNoGo_r,106,1,12,12,8,{SPACE},Noncue,BigCircle.bmp,1,{SPACE},{SPACE},336,350212,GoGoNoGo_r,106,1,12,12,9,,Uncued,SmallSquare.bmp,1,,,0,0,No GoGoNoGo_r,106,1,12,12,10,{SPACE},Noncue,BigCircle.bmp,1,{SPACE},{SPACE},445,354320,GoGoNoGo_r,106,1,13,13,1,{SPACE},Cue,BigSquare.bmp,1,{SPACE},{SPACE},343,356217,GoGoNoGo_r,106,1,13,13,2,,Precued,SmallSquare.bmp,1,,,0,0,No GoGoNoGo_r,106,1,13,13,3,{SPACE},Noncue,BigCircle.bmp,1,{SPACE},{SPACE},423,360296,GoGoNoGo_r,106,1,13,13,4,,Uncued,SmallSquare.bmp,1,,,0,0,No GoGoNoGo_r,106,1,13,13,5,{SPACE},Noncue,BigCircle.bmp,1,{SPACE},{SPACE},371,364260,GoGoNoGo_r,106,1,13,13,6,{SPACE},Cue,BigSquare.bmp,1,{SPACE},{SPACE},366,366271,GoGoNoGo_r,106,1,13,13,7,,Precued,SmallSquare.bmp,1,,,0,0,No GoGoNoGo_r,106,1,13,13,8,{SPACE},Noncue,BigCircle.bmp,1,{SPACE},{SPACE},428,370315,GoGoNoGo_r,106,1,13,13,9,{SPACE},Noncue,SmallCircle.bmp,1,{SPACE},{SPACE},486,372390,GoGoNoGo_r,106,1,13,13,10,{SPACE},Noncue,BigCircle.bmp,1,{SPACE},{SPACE},482,374385,GoGoNoGo_r,106,1,14,14,1,,Uncued,SmallSquare.bmp,1,,,0,0,No GoGoNoGo_r,106,1,14,14,2,{SPACE},Noncue,BigCircle.bmp,1,{SPACE},{SPACE},427,378329,GoGoNoGo_r,106,1,14,14,3,{SPACE},Cue,BigSquare.bmp,1,{SPACE},{SPACE},411,380313,GoGoNoGo_r,106,1,14,14,4,,Precued,SmallSquare.bmp,1,,,0,0,No GoGoNoGo_r,106,1,14,14,5,{SPACE},Noncue,BigCircle.bmp,1,{SPACE},{SPACE},360,384277,GoGoNoGo_r,106,1,14,14,6,{SPACE},Cue,BigSquare.bmp,1,{SPACE},{SPACE},355,386272,GoGoNoGo_r,106,1,14,14,7,,Precued,SmallSquare.bmp,1,,,0,0,No GoGoNoGo_r,106,1,14,14,8,{SPACE},Noncue,BigCircle.bmp,1,{SPACE},{SPACE},343,390259,GoGoNoGo_r,106,1,14,14,9,{SPACE},Noncue,SmallCircle.bmp,1,{SPACE},{SPACE},510,392425,GoGoNoGo_r,106,1,14,14,10,{SPACE},Noncue,BigCircle.bmp,1,{SPACE},{SPACE},401,394332,GoGoNoGo_r,106,1,15,15,1,{SPACE},Cue,BigSquare.bmp,1,{SPACE},{SPACE},394,396325,GoGoNoGo_r,106,1,15,15,2,,Precued,SmallSquare.bmp,1,,,0,0,No GoGoNoGo_r,106,1,15,15,3,{SPACE},Noncue,BigCircle.bmp,1,{SPACE},{SPACE},348,400278,GoGoNoGo_r,106,1,15,15,4,,Uncued,SmallSquare.bmp,1,,,0,0,No GoGoNoGo_r,106,1,15,15,5,{SPACE},Noncue,BigCircle.bmp,1,{SPACE},{SPACE},365,404311,GoGoNoGo_r,106,1,15,15,6,{SPACE},Cue,BigSquare.bmp,1,{SPACE},{SPACE},418,406346,GoGoNoGo_r,106,1,15,15,7,,Precued,SmallSquare.bmp,1,,,0,0,No GoGoNoGo_r,106,1,15,15,8,{SPACE},Noncue,BigCircle.bmp,1,{SPACE},{SPACE},333,410277,GoGoNoGo_r,106,1,15,15,9,{SPACE},Cue,BigSquare.bmp,1,{SPACE},{SPACE},458,412386,GoGoNoGo_r,106,1,15,15,10,{SPACE},Noncue,BigCircle.bmp,1,{SPACE},{SPACE},356,414316,GoGoNoGo_r,106,1,16,16,1,{SPACE},Noncue,SmallCircle.bmp,1,{SPACE},{SPACE},544,416503,GoGoNoGo_r,106,1,16,16,2,,Uncued,SmallSquare.bmp,1,,,0,0,No GoGoNoGo_r,106,1,16,16,3,{SPACE},Cue,BigSquare.bmp,1,{SPACE},{SPACE},409,420367,GoGoNoGo_r,106,1,16,16,4,,Precued,SmallSquare.bmp,1,,,0,0,No GoGoNoGo_r,106,1,16,16,5,{SPACE},Noncue,BigCircle.bmp,1,{SPACE},{SPACE},435,424409,GoGoNoGo_r,106,1,16,16,6,{SPACE},Noncue,BigCircle.bmp,1,{SPACE},{SPACE},395,426368,GoGoNoGo_r,106,1,16,16,7,{SPACE},Cue,BigSquare.bmp,1,{SPACE},{SPACE},525,428498,GoGoNoGo_r,106,1,16,16,8,,Precued,SmallSquare.bmp,1,,,0,0,No GoGoNoGo_r,106,1,16,16,9,{SPACE},Noncue,BigCircle.bmp,1,{SPACE},{SPACE},296,432268,GoGoNoGo_r,106,1,16,16,10,{SPACE},Noncue,SmallCircle.bmp,1,{SPACE},{SPACE},573,434544,GoGoNoGo_r,106,1,17,17,1,{SPACE},Noncue,BigCircle.bmp,1,{SPACE},{SPACE},376,436364,GoGoNoGo_r,106,1,17,17,2,,Uncued,SmallSquare.bmp,1,,,0,0,No GoGoNoGo_r,106,1,17,17,3,{SPACE},Noncue,SmallCircle.bmp,1,{SPACE},{SPACE},434,440421,GoGoNoGo_r,106,1,17,17,4,{SPACE},Cue,BigSquare.bmp,1,{SPACE},{SPACE},350,442319,GoGoNoGo_r,106,1,17,17,5,,Precued,SmallSquare.bmp,0,,{SPACE},388,444374,No GoGoNoGo_r,106,1,17,17,6,{SPACE},Cue,BigSquare.bmp,1,{SPACE},{SPACE},386,446372,GoGoNoGo_r,106,1,17,17,7,,Precued,SmallSquare.bmp,1,,,0,0,No GoGoNoGo_r,106,1,17,17,8,{SPACE},Noncue,BigCircle.bmp,1,{SPACE},{SPACE},442,450443,GoGoNoGo_r,106,1,17,17,9,{SPACE},Noncue,SmallCircle.bmp,1,{SPACE},{SPACE},436,452436,GoGoNoGo_r,106,1,17,17,10,{SPACE},Noncue,BigCircle.bmp,1,{SPACE},{SPACE},373,454373,GoGoNoGo_r,106,1,18,18,1,{SPACE},Cue,BigSquare.bmp,1,{SPACE},{SPACE},345,456344,GoGoNoGo_r,106,1,18,18,2,,Precued,SmallSquare.bmp,1,,,0,0,No GoGoNoGo_r,106,1,18,18,3,{SPACE},Noncue,BigCircle.bmp,1,{SPACE},{SPACE},390,460405,GoGoNoGo_r,106,1,18,18,4,,Uncued,SmallSquare.bmp,1,,,0,0,No GoGoNoGo_r,106,1,18,18,5,{SPACE},Cue,BigSquare.bmp,1,{SPACE},{SPACE},369,464367,GoGoNoGo_r,106,1,18,18,6,{SPACE},Noncue,BigCircle.bmp,1,{SPACE},{SPACE},380,466393,GoGoNoGo_r,106,1,18,18,7,{SPACE},Noncue,SmallCircle.bmp,1,{SPACE},{SPACE},540,468570,GoGoNoGo_r,106,1,18,18,8,{SPACE},Cue,BigSquare.bmp,1,{SPACE},{SPACE},346,470359,GoGoNoGo_r,106,1,18,18,9,,Precued,SmallSquare.bmp,0,,{SPACE},344,472357,No GoGoNoGo_r,106,1,18,18,10,{SPACE},Noncue,BigCircle.bmp,1,{SPACE},{SPACE},334,474362,GoGoNoGo_r,106,1,19,19,1,,Uncued,SmallSquare.bmp,1,,,0,0,No GoGoNoGo_r,106,1,19,19,2,{SPACE},Noncue,BigCircle.bmp,1,{SPACE},{SPACE},394,478421,GoGoNoGo_r,106,1,19,19,3,{SPACE},Noncue,BigCircle.bmp,1,{SPACE},{SPACE},369,480412,GoGoNoGo_r,106,1,19,19,4,{SPACE},Cue,BigSquare.bmp,1,{SPACE},{SPACE},385,482413,GoGoNoGo_r,106,1,19,19,5,,Precued,SmallSquare.bmp,1,,,0,0,No GoGoNoGo_r,106,1,19,19,6,{SPACE},Cue,BigSquare.bmp,1,{SPACE},{SPACE},316,486342,GoGoNoGo_r,106,1,19,19,7,,Precued,SmallSquare.bmp,1,,,0,0,No GoGoNoGo_r,106,1,19,19,8,{SPACE},Noncue,BigCircle.bmp,1,{SPACE},{SPACE},389,490447,GoGoNoGo_r,106,1,19,19,9,{SPACE},Noncue,BigCircle.bmp,1,{SPACE},{SPACE},300,492357,GoGoNoGo_r,106,1,19,19,10,{SPACE},Noncue,BigCircle.bmp,1,{SPACE},{SPACE},417,494474,GoGoNoGo_r,106,2,1,1,,,,,,,,,,GoNoGo_r,106,2,2,2,1,{SPACE},Cue,BigSquare.bmp,1,{SPACE},{SPACE},529,111468,GoGoNoGo_r,106,2,2,2,2,,Precued,SmallSquare.bmp,0,,{SPACE},364,113369,No GoGoNoGo_r,106,2,2,2,3,{SPACE},Noncue,BigCircle.bmp,0,{SPACE},,0,0,GoGoNoGo_r,106,2,2,2,4,{SPACE},Noncue,SmallCircle.bmp,1,{SPACE},{SPACE},428,117365,GoGoNoGo_r,106,2,2,2,5,{SPACE},Cue,BigSquare.bmp,1,{SPACE},{SPACE},364,119301,GoGoNoGo_r,106,2,2,2,6,,Precued,SmallSquare.bmp,1,,,0,0,No GoGoNoGo_r,106,2,2,2,7,{SPACE},Noncue,BigCircle.bmp,1,{SPACE},{SPACE},309,123261,GoGoNoGo_r,106,2,2,2,8,,Uncued,SmallSquare.bmp,1,,,0,0,No GoGoNoGo_r,106,2,2,2,9,{SPACE},Noncue,BigCircle.bmp,1,{SPACE},{SPACE},249,127200,GoGoNoGo_r,106,2,2,2,10,{SPACE},Noncue,BigCircle.bmp,1,{SPACE},{SPACE},373,129324,GoGoNoGo_r,106,2,3,3,1,{SPACE},Noncue,BigCircle.bmp,1,{SPACE},{SPACE},301,131251,GoGoNoGo_r,106,2,3,3,2,,Uncued,SmallSquare.bmp,1,,,0,0,No GoGoNoGo_r,106,2,3,3,3,{SPACE},Cue,BigSquare.bmp,1,{SPACE},{SPACE},316,135282,GoGoNoGo_r,106,2,3,3,4,,Precued,SmallSquare.bmp,1,,,0,0,No GoGoNoGo_r,106,2,3,3,5,{SPACE},Noncue,SmallCircle.bmp,1,{SPACE},{SPACE},464,139429,GoGoNoGo_r,106,2,3,3,6,{SPACE},Cue,BigSquare.bmp,1,{SPACE},{SPACE},426,141392,GoGoNoGo_r,106,2,3,3,7,,Precued,SmallSquare.bmp,1,,,0,0,No GoGoNoGo_r,106,2,3,3,8,{SPACE},Noncue,BigCircle.bmp,1,{SPACE},{SPACE},268,145248,GoGoNoGo_r,106,2,3,3,9,{SPACE},Cue,BigSquare.bmp,1,{SPACE},{SPACE},362,147341,GoGoNoGo_r,106,2,3,3,10,{SPACE},Noncue,BigCircle.bmp,1,{SPACE},{SPACE},385,149364,GoGoNoGo_r,106,2,4,4,1,{SPACE},Noncue,SmallCircle.bmp,1,{SPACE},{SPACE},487,151465,GoGoNoGo_r,106,2,4,4,2,{SPACE},Cue,BigSquare.bmp,1,{SPACE},{SPACE},346,153340,GoGoNoGo_r,106,2,4,4,3,,Precued,SmallSquare.bmp,0,,{SPACE},294,155288,No GoGoNoGo_r,106,2,4,4,4,{SPACE},Noncue,BigCircle.bmp,1,{SPACE},{SPACE},319,157312,GoGoNoGo_r,106,2,4,4,5,{SPACE},Cue,BigSquare.bmp,1,{SPACE},{SPACE},322,159315,GoGoNoGo_r,106,2,4,4,6,,Precued,SmallSquare.bmp,1,,,0,0,No GoGoNoGo_r,106,2,4,4,7,{SPACE},Noncue,BigCircle.bmp,1,{SPACE},{SPACE},282,163274,GoGoNoGo_r,106,2,4,4,8,{SPACE},Noncue,BigCircle.bmp,1,{SPACE},{SPACE},304,165312,GoGoNoGo_r,106,2,4,4,9,,Uncued,SmallSquare.bmp,1,,,0,0,No GoGoNoGo_r,106,2,4,4,10,{SPACE},Noncue,BigCircle.bmp,1,{SPACE},{SPACE},280,169287,GoGoNoGo_r,106,2,5,5,1,{SPACE},Noncue,BigCircle.bmp,1,{SPACE},{SPACE},324,171330,GoGoNoGo_r,106,2,5,5,2,{SPACE},Noncue,BigCircle.bmp,1,{SPACE},{SPACE},354,173360,GoGoNoGo_r,106,2,5,5,3,{SPACE},Cue,BigSquare.bmp,1,{SPACE},{SPACE},324,175346,GoGoNoGo_r,106,2,5,5,4,,Precued,SmallSquare.bmp,1,,,0,0,No GoGoNoGo_r,106,2,5,5,5,{SPACE},Noncue,BigCircle.bmp,1,{SPACE},{SPACE},289,179310,GoGoNoGo_r,106,2,5,5,6,,Uncued,SmallSquare.bmp,1,,,0,0,No GoGoNoGo_r,106,2,5,5,7,{SPACE},Noncue,BigCircle.bmp,1,{SPACE},{SPACE},355,183375,GoGoNoGo_r,106,2,5,5,8,{SPACE},Noncue,BigCircle.bmp,1,{SPACE},{SPACE},385,185421,GoGoNoGo_r,106,2,5,5,9,{SPACE},Cue,BigSquare.bmp,1,{SPACE},{SPACE},370,187405,GoGoNoGo_r,106,2,5,5,10,,Precued,SmallSquare.bmp,1,,,0,0,No GoGoNoGo_r,106,2,6,6,1,{SPACE},Cue,BigSquare.bmp,1,{SPACE},{SPACE},338,191372,GoGoNoGo_r,106,2,6,6,2,{SPACE},Noncue,BigCircle.bmp,1,{SPACE},{SPACE},284,193318,GoGoNoGo_r,106,2,6,6,3,,Uncued,SmallSquare.bmp,1,,,0,0,No GoGoNoGo_r,106,2,6,6,4,{SPACE},Cue,BigSquare.bmp,1,{SPACE},{SPACE},318,197368,GoGoNoGo_r,106,2,6,6,5,,Precued,SmallSquare.bmp,1,,,0,0,No GoGoNoGo_r,106,2,6,6,6,{SPACE},Noncue,BigCircle.bmp,1,{SPACE},{SPACE},330,201379,GoGoNoGo_r,106,2,6,6,7,{SPACE},Cue,BigSquare.bmp,1,{SPACE},{SPACE},320,203368,GoGoNoGo_r,106,2,6,6,8,,Precued,SmallSquare.bmp,0,,{SPACE},344,205408,No GoGoNoGo_r,106,2,6,6,9,{SPACE},Noncue,SmallCircle.bmp,1,{SPACE},{SPACE},297,207361,GoGoNoGo_r,106,2,6,6,10,,Uncued,SmallSquare.bmp,0,,{SPACE},358,209421,No GoGoNoGo_r,106,2,7,7,1,{SPACE},Noncue,BigCircle.bmp,1,{SPACE},{SPACE},335,211398,GoGoNoGo_r,106,2,7,7,2,{SPACE},Cue,BigSquare.bmp,1,{SPACE},{SPACE},344,213406,GoGoNoGo_r,106,2,7,7,3,,Precued,SmallSquare.bmp,1,,,0,0,No GoGoNoGo_r,106,2,7,7,4,{SPACE},Noncue,SmallCircle.bmp,1,{SPACE},{SPACE},336,217414,GoGoNoGo_r,106,2,7,7,5,,Uncued,SmallSquare.bmp,1,,,0,0,No GoGoNoGo_r,106,2,7,7,6,{SPACE},Noncue,BigCircle.bmp,1,{SPACE},{SPACE},401,221478,GoGoNoGo_r,106,2,7,7,7,{SPACE},Noncue,BigCircle.bmp,1,{SPACE},{SPACE},402,223478,GoGoNoGo_r,106,2,7,7,8,{SPACE},Cue,BigSquare.bmp,1,{SPACE},{SPACE},393,225485,GoGoNoGo_r,106,2,7,7,9,,Precued,SmallSquare.bmp,1,,,0,0,No GoGoNoGo_r,106,2,7,7,10,{SPACE},Noncue,BigCircle.bmp,1,{SPACE},{SPACE},410,229501,GoGoNoGo_r,106,2,8,8,1,{SPACE},Noncue,SmallCircle.bmp,1,{SPACE},{SPACE},493,231584,GoGoNoGo_r,106,2,8,8,2,{SPACE},Cue,BigSquare.bmp,1,{SPACE},{SPACE},407,233497,GoGoNoGo_r,106,2,8,8,3,,Precued,SmallSquare.bmp,1,,,0,0,No GoGoNoGo_r,106,2,8,8,4,{SPACE},Noncue,BigCircle.bmp,1,{SPACE},{SPACE},391,237497,GoGoNoGo_r,106,2,8,8,5,{SPACE},Noncue,BigCircle.bmp,1,{SPACE},{SPACE},344,239449,GoGoNoGo_r,106,2,8,8,6,{SPACE},Cue,BigSquare.bmp,1,{SPACE},{SPACE},386,241491,GoGoNoGo_r,106,2,8,8,7,,Precued,SmallSquare.bmp,0,,{SPACE},327,243431,No GoGoNoGo_r,106,2,8,8,8,{SPACE},Noncue,BigCircle.bmp,1,{SPACE},{SPACE},337,245441,GoGoNoGo_r,106,2,8,8,9,,Uncued,SmallSquare.bmp,1,,,0,0,No GoGoNoGo_r,106,2,8,8,10,{SPACE},Noncue,BigCircle.bmp,1,{SPACE},{SPACE},312,249431,GoGoNoGo_r,106,2,9,9,1,{SPACE},Cue,BigSquare.bmp,1,{SPACE},{SPACE},385,251504,GoGoNoGo_r,106,2,9,9,2,{SPACE},Noncue,SmallCircle.bmp,1,{SPACE},{SPACE},659,253777,GoGoNoGo_r,106,2,9,9,3,{SPACE},Noncue,BigCircle.bmp,1,{SPACE},{SPACE},420,255538,GoGoNoGo_r,106,2,9,9,4,{SPACE},Cue,BigSquare.bmp,1,{SPACE},{SPACE},363,257497,GoGoNoGo_r,106,2,9,9,5,,Precued,SmallSquare.bmp,1,,,0,0,No GoGoNoGo_r,106,2,9,9,6,{SPACE},Cue,BigSquare.bmp,1,{SPACE},{SPACE},376,261509,GoGoNoGo_r,106,2,9,9,7,,Precued,SmallSquare.bmp,1,,,0,0,No GoGoNoGo_r,106,2,9,9,8,{SPACE},Noncue,BigCircle.bmp,1,{SPACE},{SPACE},374,265506,GoGoNoGo_r,106,2,9,9,9,,Uncued,SmallSquare.bmp,1,,,0,0,No GoGoNoGo_r,106,2,9,9,10,{SPACE},Noncue,BigCircle.bmp,1,{SPACE},{SPACE},361,269509,GoGoNoGo_r,106,2,10,10,1,{SPACE},Noncue,BigCircle.bmp,1,{SPACE},{SPACE},362,271509,GoGoNoGo_r,106,2,10,10,2,{SPACE},Cue,BigSquare.bmp,1,{SPACE},{SPACE},435,273581,GoGoNoGo_r,106,2,10,10,3,,Precued,SmallSquare.bmp,1,,,0,0,No GoGoNoGo_r,106,2,10,10,4,{SPACE},Cue,BigSquare.bmp,1,{SPACE},{SPACE},388,277550,GoGoNoGo_r,106,2,10,10,5,,Precued,SmallSquare.bmp,1,,,0,0,No GoGoNoGo_r,106,2,10,10,6,{SPACE},Noncue,BigCircle.bmp,1,{SPACE},{SPACE},330,281491,GoGoNoGo_r,106,2,10,10,7,{SPACE},Cue,BigSquare.bmp,1,{SPACE},{SPACE},471,283632,GoGoNoGo_r,106,2,10,10,8,,Precued,SmallSquare.bmp,1,,,0,0,No GoGoNoGo_r,106,2,10,10,9,{SPACE},Noncue,BigCircle.bmp,1,{SPACE},{SPACE},399,287575,GoGoNoGo_r,106,2,10,10,10,,Uncued,SmallSquare.bmp,0,,{SPACE},271,289447,No GoGoNoGo_r,106,2,11,11,1,{SPACE},Cue,BigSquare.bmp,1,{SPACE},{SPACE},379,291554,GoGoNoGo_r,106,2,11,11,2,,Precued,SmallSquare.bmp,1,,,0,0,No GoGoNoGo_r,106,2,11,11,3,{SPACE},Noncue,BigCircle.bmp,1,{SPACE},{SPACE},507,295681,GoGoNoGo_r,106,2,11,11,4,,Uncued,SmallSquare.bmp,1,,,0,0,No GoGoNoGo_r,106,2,11,11,5,{SPACE},Noncue,BigCircle.bmp,1,{SPACE},{SPACE},473,299663,GoGoNoGo_r,106,2,11,11,6,{SPACE},Noncue,SmallCircle.bmp,1,{SPACE},{SPACE},584,301773,GoGoNoGo_r,106,2,11,11,7,{SPACE},Cue,BigSquare.bmp,1,{SPACE},{SPACE},493,303682,GoGoNoGo_r,106,2,11,11,8,,Precued,SmallSquare.bmp,1,,,0,0,No GoGoNoGo_r,106,2,11,11,9,{SPACE},Noncue,BigCircle.bmp,1,{SPACE},{SPACE},417,307621,GoGoNoGo_r,106,2,11,11,10,,Uncued,SmallSquare.bmp,1,,,0,0,No GoGoNoGo_r,106,2,12,12,1,{SPACE},Noncue,SmallCircle.bmp,1,{SPACE},{SPACE},414,311617,GoGoNoGo_r,106,2,12,12,2,{SPACE},Cue,BigSquare.bmp,1,{SPACE},{SPACE},466,313669,GoGoNoGo_r,106,2,12,12,3,,Precued,SmallSquare.bmp,1,,,0,0,No GoGoNoGo_r,106,2,12,12,4,{SPACE},Cue,BigSquare.bmp,1,{SPACE},{SPACE},339,317541,GoGoNoGo_r,106,2,12,12,5,{SPACE},Noncue,BigCircle.bmp,1,{SPACE},{SPACE},370,319588,GoGoNoGo_r,106,2,12,12,6,{SPACE},Cue,BigSquare.bmp,1,{SPACE},{SPACE},388,321605,GoGoNoGo_r,106,2,12,12,7,,Precued,SmallSquare.bmp,1,,,0,0,No GoGoNoGo_r,106,2,12,12,8,{SPACE},Noncue,BigCircle.bmp,1,{SPACE},{SPACE},420,325636,GoGoNoGo_r,106,2,12,12,9,,Uncued,SmallSquare.bmp,1,,,0,0,No GoGoNoGo_r,106,2,12,12,10,{SPACE},Noncue,BigCircle.bmp,1,{SPACE},{SPACE},387,329619,GoGoNoGo_r,106,2,13,13,1,{SPACE},Cue,BigSquare.bmp,1,{SPACE},{SPACE},356,331587,GoGoNoGo_r,106,2,13,13,2,,Precued,SmallSquare.bmp,1,,,0,0,No GoGoNoGo_r,106,2,13,13,3,{SPACE},Noncue,BigCircle.bmp,1,{SPACE},{SPACE},327,335557,GoGoNoGo_r,106,2,13,13,4,,Uncued,SmallSquare.bmp,1,,,0,0,No GoGoNoGo_r,106,2,13,13,5,{SPACE},Noncue,BigCircle.bmp,1,{SPACE},{SPACE},375,339621,GoGoNoGo_r,106,2,13,13,6,{SPACE},Cue,BigSquare.bmp,1,{SPACE},{SPACE},414,341659,GoGoNoGo_r,106,2,13,13,7,,Precued,SmallSquare.bmp,1,,,0,0,No GoGoNoGo_r,106,2,13,13,8,{SPACE},Noncue,BigCircle.bmp,1,{SPACE},{SPACE},461,345705,GoGoNoGo_r,106,2,13,13,9,{SPACE},Noncue,SmallCircle.bmp,1,{SPACE},{SPACE},365,347609,GoGoNoGo_r,106,2,13,13,10,{SPACE},Noncue,BigCircle.bmp,1,{SPACE},{SPACE},393,349653,GoGoNoGo_r,106,2,14,14,1,,Uncued,SmallSquare.bmp,0,,{SPACE},378,351638,No GoGoNoGo_r,106,2,14,14,2,{SPACE},Noncue,BigCircle.bmp,1,{SPACE},{SPACE},327,353586,GoGoNoGo_r,106,2,14,14,3,{SPACE},Cue,BigSquare.bmp,1,{SPACE},{SPACE},617,355876,GoGoNoGo_r,106,2,14,14,4,,Precued,SmallSquare.bmp,1,,,0,0,No GoGoNoGo_r,106,2,14,14,5,{SPACE},Noncue,BigCircle.bmp,1,{SPACE},{SPACE},365,359639,GoGoNoGo_r,106,2,14,14,6,{SPACE},Cue,BigSquare.bmp,1,{SPACE},{SPACE},394,361668,GoGoNoGo_r,106,2,14,14,7,,Precued,SmallSquare.bmp,1,,,0,0,No GoGoNoGo_r,106,2,14,14,8,{SPACE},Noncue,BigCircle.bmp,1,{SPACE},{SPACE},400,365673,GoGoNoGo_r,106,2,14,14,9,{SPACE},Noncue,SmallCircle.bmp,1,{SPACE},{SPACE},527,367799,GoGoNoGo_r,106,2,14,14,10,{SPACE},Noncue,BigCircle.bmp,1,{SPACE},{SPACE},412,369700,GoGoNoGo_r,106,2,15,15,1,{SPACE},Cue,BigSquare.bmp,1,{SPACE},{SPACE},408,371696,GoGoNoGo_r,106,2,15,15,2,,Precued,SmallSquare.bmp,0,,{SPACE},390,373677,No GoGoNoGo_r,106,2,15,15,3,{SPACE},Noncue,BigCircle.bmp,1,{SPACE},{SPACE},312,375599,GoGoNoGo_r,106,2,15,15,4,,Uncued,SmallSquare.bmp,1,,,0,0,No GoGoNoGo_r,106,2,15,15,5,{SPACE},Noncue,BigCircle.bmp,1,{SPACE},{SPACE},416,379718,GoGoNoGo_r,106,2,15,15,6,{SPACE},Cue,BigSquare.bmp,1,{SPACE},{SPACE},327,381629,GoGoNoGo_r,106,2,15,15,7,,Precued,SmallSquare.bmp,1,,,0,0,No GoGoNoGo_r,106,2,15,15,8,{SPACE},Noncue,BigCircle.bmp,1,{SPACE},{SPACE},346,385647,GoGoNoGo_r,106,2,15,15,9,{SPACE},Cue,BigSquare.bmp,1,{SPACE},{SPACE},517,387817,GoGoNoGo_r,106,2,15,15,10,{SPACE},Noncue,BigCircle.bmp,1,{SPACE},{SPACE},382,389698,GoGoNoGo_r,106,2,16,16,1,{SPACE},Noncue,SmallCircle.bmp,1,{SPACE},{SPACE},479,391795,GoGoNoGo_r,106,2,16,16,2,,Uncued,SmallSquare.bmp,1,,,0,0,No GoGoNoGo_r,106,2,16,16,3,{SPACE},Cue,BigSquare.bmp,1,{SPACE},{SPACE},321,395636,GoGoNoGo_r,106,2,16,16,4,,Precued,SmallSquare.bmp,1,,,0,0,No GoGoNoGo_r,106,2,16,16,5,{SPACE},Noncue,BigCircle.bmp,1,{SPACE},{SPACE},359,399673,GoGoNoGo_r,106,2,16,16,6,{SPACE},Noncue,BigCircle.bmp,1,{SPACE},{SPACE},359,401689,GoGoNoGo_r,106,2,16,16,7,{SPACE},Cue,BigSquare.bmp,1,{SPACE},{SPACE},398,403727,GoGoNoGo_r,106,2,16,16,8,,Precued,SmallSquare.bmp,1,,,0,0,No GoGoNoGo_r,106,2,16,16,9,{SPACE},Noncue,BigCircle.bmp,1,{SPACE},{SPACE},445,407773,GoGoNoGo_r,106,2,16,16,10,{SPACE},Noncue,SmallCircle.bmp,1,{SPACE},{SPACE},571,409899,GoGoNoGo_r,106,2,17,17,1,{SPACE},Noncue,BigCircle.bmp,1,{SPACE},{SPACE},324,411668,GoGoNoGo_r,106,2,17,17,2,,Uncued,SmallSquare.bmp,1,,,0,0,No GoGoNoGo_r,106,2,17,17,3,{SPACE},Noncue,SmallCircle.bmp,1,{SPACE},{SPACE},381,415724,GoGoNoGo_r,106,2,17,17,4,{SPACE},Cue,BigSquare.bmp,1,{SPACE},{SPACE},412,417754,GoGoNoGo_r,106,2,17,17,5,,Precued,SmallSquare.bmp,1,,,0,0,No GoGoNoGo_r,106,2,17,17,6,{SPACE},Cue,BigSquare.bmp,1,{SPACE},{SPACE},336,421694,GoGoNoGo_r,106,2,17,17,7,,Precued,SmallSquare.bmp,0,,{SPACE},336,423693,No GoGoNoGo_r,106,2,17,17,8,{SPACE},Noncue,BigCircle.bmp,1,{SPACE},{SPACE},348,425705,GoGoNoGo_r,106,2,17,17,9,{SPACE},Noncue,SmallCircle.bmp,1,{SPACE},{SPACE},484,427840,GoGoNoGo_r,106,2,17,17,10,{SPACE},Noncue,BigCircle.bmp,1,{SPACE},{SPACE},350,429706,GoGoNoGo_r,106,2,18,18,1,{SPACE},Cue,BigSquare.bmp,1,{SPACE},{SPACE},475,431847,GoGoNoGo_r,106,2,18,18,2,,Precued,SmallSquare.bmp,1,,,0,0,No GoGoNoGo_r,106,2,18,18,3,{SPACE},Noncue,BigCircle.bmp,1,{SPACE},{SPACE},278,435649,GoGoNoGo_r,106,2,18,18,4,,Uncued,SmallSquare.bmp,1,,,0,0,No GoGoNoGo_r,106,2,18,18,5,{SPACE},Cue,BigSquare.bmp,1,{SPACE},{SPACE},279,439649,GoGoNoGo_r,106,2,18,18,6,{SPACE},Noncue,BigCircle.bmp,1,{SPACE},{SPACE},383,441769,GoGoNoGo_r,106,2,18,18,7,{SPACE},Noncue,SmallCircle.bmp,1,{SPACE},{SPACE},450,443836,GoGoNoGo_r,106,2,18,18,8,{SPACE},Cue,BigSquare.bmp,1,{SPACE},{SPACE},359,445744,GoGoNoGo_r,106,2,18,18,9,,Precued,SmallSquare.bmp,1,,,0,0,No GoGoNoGo_r,106,2,18,18,10,{SPACE},Noncue,BigCircle.bmp,1,{SPACE},{SPACE},253,449637,GoGoNoGo_r,106,2,19,19,1,,Uncued,SmallSquare.bmp,0,,{SPACE},266,451666,No GoGoNoGo_r,106,2,19,19,2,{SPACE},Noncue,BigCircle.bmp,1,{SPACE},{SPACE},212,453612,GoGoNoGo_r,106,2,19,19,3,{SPACE},Noncue,BigCircle.bmp,1,{SPACE},{SPACE},384,455783,GoGoNoGo_r,106,2,19,19,4,{SPACE},Cue,BigSquare.bmp,1,{SPACE},{SPACE},334,457733,GoGoNoGo_r,106,2,19,19,5,,Precued,SmallSquare.bmp,1,,,0,0,No GoGoNoGo_r,106,2,19,19,6,{SPACE},Cue,BigSquare.bmp,1,{SPACE},{SPACE},412,461826,GoGoNoGo_r,106,2,19,19,7,,Precued,SmallSquare.bmp,1,,,0,0,No GoGoNoGo_r,106,2,19,19,8,{SPACE},Noncue,BigCircle.bmp,1,{SPACE},{SPACE},421,465851,GoGoNoGo_r,106,2,19,19,9,{SPACE},Noncue,BigCircle.bmp,1,{SPACE},{SPACE},462,467875,GoGoNoGo_r,106,2,19,19,10,{SPACE},Noncue,BigCircle.bmp,1,{SPACE},{SPACE},313,469725,GoGoNoGo_r,107,1,1,1,,,,,,,,,,GoNoGo_r,107,1,2,2,1,{SPACE},Cue,BigSquare.bmp,1,{SPACE},{SPACE},493,101040,GoGoNoGo_r,107,1,2,2,2,,Precued,SmallSquare.bmp,0,,{SPACE},228,102741,No GoGoNoGo_r,107,1,2,2,3,{SPACE},Noncue,BigCircle.bmp,1,{SPACE},{SPACE},233,104745,GoGoNoGo_r,107,1,2,2,4,{SPACE},Noncue,SmallCircle.bmp,1,{SPACE},{SPACE},312,106824,GoGoNoGo_r,107,1,2,2,5,{SPACE},Cue,BigSquare.bmp,1,{SPACE},{SPACE},309,108820,GoGoNoGo_r,107,1,2,2,6,,Precued,SmallSquare.bmp,1,,,0,0,No GoGoNoGo_r,107,1,2,2,7,{SPACE},Noncue,BigCircle.bmp,1,{SPACE},{SPACE},240,112767,GoGoNoGo_r,107,1,2,2,8,,Uncued,SmallSquare.bmp,0,,{SPACE},241,114768,No GoGoNoGo_r,107,1,2,2,9,{SPACE},Noncue,BigCircle.bmp,1,{SPACE},{SPACE},297,116823,GoGoNoGo_r,107,1,2,2,10,{SPACE},Noncue,BigCircle.bmp,1,{SPACE},{SPACE},304,118829,GoGoNoGo_r,107,1,3,3,1,{SPACE},Noncue,BigCircle.bmp,1,{SPACE},{SPACE},328,120853,GoGoNoGo_r,107,1,3,3,2,,Uncued,SmallSquare.bmp,1,,,0,0,No GoGoNoGo_r,107,1,3,3,3,{SPACE},Cue,BigSquare.bmp,1,{SPACE},{SPACE},249,124790,GoGoNoGo_r,107,1,3,3,4,,Precued,SmallSquare.bmp,1,,,0,0,No GoGoNoGo_r,107,1,3,3,5,{SPACE},Noncue,SmallCircle.bmp,1,{SPACE},{SPACE},621,129161,GoGoNoGo_r,107,1,3,3,6,{SPACE},Cue,BigSquare.bmp,1,{SPACE},{SPACE},288,130827,GoGoNoGo_r,107,1,3,3,7,,Precued,SmallSquare.bmp,0,,{SPACE},274,132829,No GoGoNoGo_r,107,1,3,3,8,{SPACE},Noncue,BigCircle.bmp,1,{SPACE},{SPACE},480,135035,GoGoNoGo_r,107,1,3,3,9,{SPACE},Cue,BigSquare.bmp,1,{SPACE},{SPACE},474,137028,GoGoNoGo_r,107,1,3,3,10,{SPACE},Noncue,BigCircle.bmp,1,{SPACE},{SPACE},384,138938,GoGoNoGo_r,107,1,4,4,1,{SPACE},Noncue,SmallCircle.bmp,1,{SPACE},{SPACE},400,140953,GoGoNoGo_r,107,1,4,4,2,{SPACE},Cue,BigSquare.bmp,1,{SPACE},{SPACE},412,142981,GoGoNoGo_r,107,1,4,4,3,,Precued,SmallSquare.bmp,1,,,0,0,No GoGoNoGo_r,107,1,4,4,4,{SPACE},Noncue,BigCircle.bmp,1,{SPACE},{SPACE},223,146791,GoGoNoGo_r,107,1,4,4,5,{SPACE},Cue,BigSquare.bmp,1,{SPACE},{SPACE},270,148838,GoGoNoGo_r,107,1,4,4,6,,Precued,SmallSquare.bmp,0,,{SPACE},225,150792,No GoGoNoGo_r,107,1,4,4,7,{SPACE},Noncue,BigCircle.bmp,1,{SPACE},{SPACE},401,152984,GoGoNoGo_r,107,1,4,4,8,{SPACE},Noncue,BigCircle.bmp,1,{SPACE},{SPACE},255,154838,GoGoNoGo_r,107,1,4,4,9,,Uncued,SmallSquare.bmp,1,,,0,0,No GoGoNoGo_r,107,1,4,4,10,{SPACE},Noncue,BigCircle.bmp,1,{SPACE},{SPACE},276,158858,GoGoNoGo_r,107,1,5,5,1,{SPACE},Noncue,BigCircle.bmp,1,{SPACE},{SPACE},250,160831,GoGoNoGo_r,107,1,5,5,2,{SPACE},Noncue,BigCircle.bmp,1,{SPACE},{SPACE},292,162873,GoGoNoGo_r,107,1,5,5,3,{SPACE},Cue,BigSquare.bmp,1,{SPACE},{SPACE},290,164887,GoGoNoGo_r,107,1,5,5,4,,Precued,SmallSquare.bmp,0,,{SPACE},288,166884,No GoGoNoGo_r,107,1,5,5,5,{SPACE},Noncue,BigCircle.bmp,1,{SPACE},{SPACE},356,168952,GoGoNoGo_r,107,1,5,5,6,,Uncued,SmallSquare.bmp,0,,{SPACE},293,170888,No GoGoNoGo_r,107,1,5,5,7,{SPACE},Noncue,BigCircle.bmp,1,{SPACE},{SPACE},306,172901,GoGoNoGo_r,107,1,5,5,8,{SPACE},Noncue,BigCircle.bmp,1,{SPACE},{SPACE},318,174929,GoGoNoGo_r,107,1,5,5,9,{SPACE},Cue,BigSquare.bmp,1,{SPACE},{SPACE},462,177072,GoGoNoGo_r,107,1,5,5,10,,Precued,SmallSquare.bmp,1,,,0,0,No GoGoNoGo_r,107,1,6,6,1,{SPACE},Cue,BigSquare.bmp,1,{SPACE},{SPACE},276,180885,GoGoNoGo_r,107,1,6,6,2,{SPACE},Noncue,BigCircle.bmp,1,{SPACE},{SPACE},398,183007,GoGoNoGo_r,107,1,6,6,3,,Uncued,SmallSquare.bmp,1,,,0,0,No GoGoNoGo_r,107,1,6,6,4,{SPACE},Cue,BigSquare.bmp,1,{SPACE},{SPACE},211,186835,GoGoNoGo_r,107,1,6,6,5,,Precued,SmallSquare.bmp,0,,{SPACE},223,188847,No Go